12<?, ?sp/s, loss/train/total=8.4606]     [A
12<?, ?sp/s, loss/train/total=8.4606]     [A
12<?, ?sp/s, loss/train/total=8.4606]     [A
8.4606
8.4626
8.4611
8.4557
8.4477
8.4307
8.4121
8.3877
8.3642
8.3335
8.3094
8.2824
8.2593
8.2364
8.2173
8.2001
8.1811
8.1649
8.1453
8.1328
8.1154
8.1033
8.0862
8.0734
8.0590
8.0488
8.0384
8.0210
8.0101
7.9960
7.9843
7.9763
7.9657
7.9536
7.9493
7.9405
7.9276
7.9183
7.9075
7.9006
7.8907
7.8820
7.8712
7.8627
7.8497
7.8398
7.8257
7.8123
7.7996
7.7808
7.7668
7.7481
7.7373
7.7230
7.7064
7.6980
7.6786
7.6661
7.6535
7.6339
7.6232
7.6074
7.5914
7.5765
7.5670
7.5547
7.5433
7.5211
7.5082
7.4973
7.4866
7.4714
7.4645
7.4449
7.4357
7.4253
7.4162
7.3993
7.3939
7.3800
7.3676
7.3582
7.3476
7.3422
7.3297
7.3132
7.2980
7.2953
7.2894
7.2767
7.2652
7.2570
7.2513
7.2368
7.2310
7.2246
7.2103
7.2036
7.1942
7.1836
7.1731
7.1725
7.1557
7.1502
7.1445
7.1353
7.1281
7.1154
7.1112
7.1011
7.0944
7.0967
7.0845
7.0744
7.0683
7.0615
7.0542
7.0467
7.0347
7.0327
7.0226
7.0185
7.0047
6.9998
6.9944
6.9948
6.9800
6.9819
6.9695
6.9609
6.9548
6.9533
6.9416
6.9335
6.9314
6.9188
6.9074
6.9094
6.9095
6.8920
6.8928
6.8882
6.8819
6.8771
6.8743
6.8571
6.8577
6.8481
6.8394
6.8365
6.8296
6.8232
6.8244
6.8181
6.8155
6.8089
6.7961
6.7923
6.7926
6.7866
6.7884
6.7683
6.7711
6.7681
6.7569
6.7579
6.7533
6.7475
6.7391
6.7379
6.7383
6.7348
6.7294
6.7171
6.7129
6.7078
6.7035
6.7080
6.7030
6.6898
6.6945
6.6887
6.6895
6.6802
6.6786
6.6726
6.6571
6.6629
6.6613
6.6528
6.6590
6.6545
6.6539
6.6481
6.6408
6.6395
6.6293
6.6370
6.6300
6.6240
6.6217
6.6176
6.6146
6.6112
6.6072
6.5993
6.6104
6.6069
6.6023
6.6055
6.5985
6.6012
6.5943
6.5949
6.5912
6.5844
6.5822
6.5834
6.5857
6.5739
6.5804
6.5651
6.5684
6.5767
6.5637
6.5695
6.5637
6.5607
6.5667
6.5584
6.5562
6.5564
6.5633
6.5574
6.5516
6.5566
6.5482
6.5542
6.5528
6.5502
6.5457
6.5479
6.5457
6.5373
6.5372
6.5388
6.5436
6.5401
6.5395
6.5358
6.5390
6.5340
6.5308
6.5343
6.5396
6.5376
6.5341
6.5257
6.5250
6.5348
6.5302
6.5410
6.5282
6.5264
6.5183
6.5352
6.5232
6.5237
6.5262
6.5270
6.5171
6.5167
6.5267
6.5243
6.5225
6.5096
6.5091
6.5201
6.5289
6.5163
6.5174
6.5215
6.5152
6.5118
6.5170
6.5093
6.5106
6.5041
6.4967
6.5063
6.5106
6.5160
6.5123
6.5049
6.5041
6.5081
6.4957
6.5017
6.5033
6.5025
6.4988
6.5024
6.4976
6.5030
6.4964
6.4939
6.4922
6.5028
6.4917
6.5013
6.4995
6.4904
6.4993
6.4922
6.4934
6.4884
6.4835
6.4839
6.4882
6.4914
6.4852
6.4856
6.4809
6.4884
6.4830
6.4815
6.4892
6.4858
6.4720
6.4764
6.4883
6.4722
6.4728
6.4776
6.4768
6.4709
6.4691
6.4747
6.4737
6.4757
6.4658
6.4616
6.4654
6.4653
6.4601
6.4665
6.4599
6.4684
6.4622
6.4589
6.4523
6.4547
6.4628
6.4615
6.4521
6.4409
6.4571
6.4527
6.4567
6.4542
6.4539
6.4425
6.4488
6.4532
6.4385
6.4485
6.4521
6.4443
6.4364
6.4349
6.4444
6.4468
6.4416
6.4428
6.4458
6.4375
6.4359
6.4356
6.4384
6.4459
6.4350
6.4397
6.4321
6.4331
6.4278
6.4332
6.4293
6.4379
6.4307
6.4211
6.4236
6.4346
6.4249
6.4241
6.4212
6.4247
6.4325
6.4217
6.4262
6.4175
6.4322
6.4126
6.4270
6.4112
6.4161
6.4193
6.4115
6.4125
6.4235
6.4222
6.4075
6.4281
6.4160
6.4146
6.4138
6.4231
6.4236
6.4110
6.4087
6.4207
6.4149
6.4047
6.4125
6.4151
6.4029
6.4139
6.4138
6.4016
6.4113
6.4146
6.4016
6.4007
6.4092
6.4030
6.4011
6.3976
6.4102
6.4069
6.3879
6.3963
6.4018
6.4026
6.4195
6.3877
6.3953
6.3849
6.3812
6.3905
6.3927
6.3968
6.3896
6.3883
6.3862
6.3984
6.3885
6.3920
6.4010
6.3929
6.3986
6.3880
6.3812
6.3909
6.3724
6.3932
6.3992
6.3941
6.3845
6.3859
6.3909
6.3823
6.3869
6.3783
6.3855
6.3854
6.3856
6.3757
6.3854
6.3764
6.3810
6.3765
6.3711
6.3687
6.3869
6.3854
6.3750
6.3695
6.3744
6.3697
6.3646
6.3748
6.3646
6.3585
6.3732
6.3643
6.3706
6.3589
6.3628
6.3555
6.3577
6.3473
6.3606
6.3527
6.3454
6.3557
6.3421
6.3777
6.3545
6.3496
6.3577
6.3416
6.3387
6.3368
6.3393
6.3373
6.3344
6.3361
6.3293
6.3364
6.3302
6.3283
6.3272
6.3347
6.3248
6.3219
6.3239
6.3132
6.3155
6.3287
6.3102
6.3213
6.3081
6.3049
6.3076
6.2991
6.3110
6.3029
6.2996
6.3006
6.2972
6.2988
6.2960
6.2990
6.2941
6.2999
6.2888
6.2894
6.3026
6.2889
6.2862
6.2943
6.2884
6.2699
6.2881
6.2856
6.2998
6.2844
6.2798
6.2815
6.2800
6.2621
6.2667
6.2626
6.2736
6.2632
6.2778
6.2580
6.2555
6.2540
6.2609
6.2618
6.2536
6.2557
6.2580
6.2516
6.2519
6.2503
6.2443
6.2508
6.2556
6.2602
6.2338
6.2457
6.2464
6.2378
6.2402
6.2429
6.2381
6.2460
6.2316
6.2319
6.2342
6.2365
6.2273
6.2172
6.2398
6.2278
6.2246
6.2200
6.2188
6.2268
6.2191
6.2226
6.2169
6.2013
6.2057
6.2081
6.2102
6.2006
6.2177
6.2101
6.2072
6.2046
6.2001
6.1904
6.1982
6.1993
6.1988
6.1862
6.1829
6.1960
6.1869
6.1944
6.1820
6.1761
6.1817
6.1892
6.1650
6.1753
6.1754
6.1762
6.1728
6.1763
6.1718
6.1723
6.1608
6.1700
6.1643
6.1579
6.1506
6.1528
6.1512
6.1517
6.1506
6.1497
6.1494
6.1491
6.1526
6.1493
6.1524
6.1478
6.1417
6.1486
6.1350
6.1410
6.1443
6.1308
6.1410
6.1412
6.1345
6.1375
6.1355
6.1363
6.1297
6.1283
6.1291
6.1272
6.1205
6.1183
6.1150
6.1266
6.1144
6.1190
6.1181
6.1098
6.1165
6.1201
6.1082
6.1116
6.1052
6.1031
6.1053
6.1166
6.1039
6.1036
6.1056
6.1112
6.0906
6.1075
6.0921
6.0943
6.0998
6.0928
6.0770
6.0869
6.0969
6.1026
6.0903
6.0922
6.0916
6.0957
6.0980
6.0840
6.0934
6.0862
6.0868
6.0711
6.0811
6.0911
6.0763
6.0770
6.0650
6.0820
6.0754
6.0706
6.0535
6.0825
6.0749
6.0670
6.0699
6.0602
6.0658
6.0653
6.0664
6.0579
6.0529
6.0517
6.0609
6.0597
6.0511
6.0562
6.0625
6.0539
6.0535
6.0465
6.0375
6.0417
6.0526
6.0448
6.0384
6.0570
6.0382
6.0540
6.0384
6.0542
6.0378
6.0329
6.0439
6.0492
6.0472
6.0531
6.0464
6.0365
6.0379
6.0318
6.0371
6.0349
6.0255
6.0444
6.0463
6.0328
6.0231
6.0365
6.0247
6.0207
6.0131
6.0222
6.0156
6.0222
6.0168
6.0111
6.0248
6.0226
6.0185
6.0116
6.0186
6.0240
6.0161
6.0155
6.0127
6.0071
6.0137
6.0018
6.0173
6.0117
6.0052
6.0209
6.0045
6.0036
6.0033
6.0167
6.0012
6.0028
6.0033
6.0026
5.9893
5.9897
6.0079
5.9938
5.9957
5.9999
6.0018
5.9994
5.9932
5.9974
5.9912
6.0006
5.9897
5.9914
5.9867
5.9794
5.9894
5.9838
5.9837
5.9894
5.9836
5.9835
5.9818
5.9865
5.9861
5.9890
5.9853
5.9914
5.9852
5.9714
5.9769
5.9808
5.9845
5.9862
5.9892
5.9886
5.9787
5.9766
5.9838
5.9836
5.9774
5.9694
5.9578
5.9703
5.9795
5.9681
5.9686
5.9795
5.9673
5.9637
5.9642
5.9737
5.9704
5.9651
5.9695
5.9602
5.9646
5.9746
5.9689
5.9520
5.9746
5.9571
5.9505
5.9656
5.9633
5.9654
5.9764
5.9660
5.9572
5.9595
5.9649
5.9656
5.9519
5.9568
5.9662
5.9588
5.9484
5.9374
5.9583
5.9463
5.9562
5.9430
5.9576
5.9393
5.9382
5.9532
5.9542
5.9444
5.9464
5.9449
5.9467
5.9263
5.9332
5.9449
5.9402
5.9539
5.9321
5.9343
5.9461
5.9369
5.9295
5.9406
5.9402
5.9422
5.9456
5.9355
5.9292
5.9186
5.9336
5.9356
5.9340
5.9253
5.9298
5.9430
5.9261
5.9384
5.9237
5.9295
5.9253
5.9220
5.9337
5.9395
5.9204
5.9246
5.9244
5.9397
5.9238
5.8964
5.9157
5.9280
5.9187
5.9097
5.9206
5.9375
5.9229
5.9273
5.9198
5.9179
5.9178
5.9141
5.9102
5.9097
5.9219
5.8994
5.9150
5.9175
5.9144
5.9180
5.9064
5.9214
5.9139
5.8959
5.9087
5.9077
5.9021
5.8939
5.8941
5.9150
5.9165
5.8968
5.9105
5.9225
5.8942
5.9091
5.8936
5.9033
5.9131
5.8981
5.9028
5.8978
5.9112
5.8999
5.9108
5.8875
5.9031
5.8883
5.9045
5.8909
5.9034
5.8837
5.9041
5.8851
5.8879
5.8844
5.8943
5.8839
5.8848
5.8940
5.8866
5.8833
5.8958
5.8829
5.8755
5.8911
5.8934
5.8874
5.8933
5.8812
5.8954
5.8913
5.8841
5.8745
5.8713
5.8883
5.8851
5.8890
5.8734
5.8748
5.8837
5.8804
5.8893
5.8889
5.8881
5.8638
5.8851
5.8829
5.8931
5.8891
5.8853
5.8809
5.8837
5.8719
5.8613
5.8642
5.8849
5.8655
5.8770
5.8698
5.8640
5.8599
5.8815
5.8738
5.8705
5.8770
5.8681
5.8671
5.8654
5.8701
5.8725
5.8476
5.8601
5.8687
5.8620
5.8506
5.8697
5.8448
5.8682
5.8625
5.8624
5.8614
5.8674
5.8686
5.8676
5.8691
5.8579
5.8569
5.8669
5.8570
5.8489
5.8621
5.8602
5.8492
5.8554
5.8550
5.8459
5.8303
5.8476
5.8387
5.8584
5.8362
5.8463
5.8646
5.8409
5.8368
5.8578
5.8494
5.8558
5.8487
5.8615
5.8520
5.8463
5.8465
5.8429
5.8511
5.8353
5.8365
5.8352
5.8355
5.8390
5.8479
5.8459
5.8448
5.8506
5.8447
5.8434
5.8392
5.8420
5.8593
5.8378
5.8270
5.8390
5.8444
5.8380
5.8431
5.8420
5.8487
5.8375
5.8237
5.8361
5.8433
5.8290
5.8328
5.8514
5.8218
5.8201
5.8297
5.8409
5.8256
5.8432
5.8156
5.8151
5.8194
5.8386
5.8275
5.8395
5.8202
5.8319
5.8308
5.8325
5.8097
5.8157
5.8181
5.8017
5.8036
5.8135
5.8029
5.8324
5.8023
5.8243
5.8307
5.8184
5.8076
5.8095
5.7971
5.8101
5.8162
5.8078
5.8345
5.8003
5.8216
5.7999
5.8006
5.8066
5.7938
5.8151
5.8247
5.8162
5.8329
5.8294
5.8297
5.7923
5.8230
5.8095
5.8071
5.7992
5.8146
5.8039
5.8048
5.7937
5.8069
5.8031
5.8052
5.7920
5.8126
5.8126
5.7806
5.7869
5.8109
5.7958
5.8245
5.8007
5.8195
5.7997
5.7958
5.7966
5.8030
5.7943
5.7895
5.7878
5.7969
5.7861
5.8042
5.7924
5.8068
5.7990
5.7901
5.7968
5.7971
5.7908
5.7941
5.8012
5.7771
5.8103
5.7813
5.7937
5.7839
5.7932
5.8049
5.7933
5.7911
5.7830
5.7958
5.7793
5.7949
5.7861
5.7882
5.7909
5.7889
5.7768
5.7940
5.7734
5.7824
5.8061
5.7845
5.7812
5.7749
5.7800
5.7701
5.7936
5.7880
5.7718
5.7853
5.7793
5.7774
5.7812
5.7720
5.7798
5.7570
5.7815
5.7827
5.7796
5.7901
5.7717
5.7915
5.7713
5.7597
5.7899
5.7838
5.7808
5.7857
5.7708
5.7845
5.7983
5.7757
5.7788
5.7493
5.7575
5.7735
5.7681
5.7776
5.7824
5.7698
5.7685
5.7729
5.7743
5.7587
5.7521
5.7807
5.7586
5.7655
5.7497
5.7466
5.7641
5.7693
5.7588
5.7508
5.7550
5.7535
5.7481
5.7621
5.7613
5.7550
5.7485
5.7689
5.7424
5.7634
5.7585
5.7524
5.7575
5.7535
5.7535
5.7757
5.7639
5.7684
5.7640
5.7633
5.7605
5.7555
5.7488
5.7628
5.7487
5.7455
5.7615
5.7433
5.7314
5.7454
5.7550
5.7517
5.7774
5.7320
5.7420
5.7623
5.7375
5.7718
5.7520
5.7439
5.7330
5.7440
5.7486
5.7382
5.7566
5.7335
5.7431
5.7391
5.7443
5.7403
5.7235
5.7419
5.7546
5.7488
5.7645
5.7429
5.7543
5.7450
5.7513
5.7481
5.7458
5.7327
5.7480
5.7230
5.7275
5.7530
5.7373
5.7607
5.7411
5.7275
5.7452
5.7371
5.7288
5.7254
5.7419
5.7551
5.7619
5.7477
5.7154
5.7312
5.7295
5.7135
5.7310
5.7343
5.7334
5.7463
5.7326
5.7384
5.7233
5.7435
5.7283
5.7367
5.7333
5.7428
5.7321
5.7081
5.7231
5.7365
5.7275
5.7290
5.7333
5.7128
5.7304
5.7132
5.7266
5.7121
5.7116
5.7333
5.7253
5.7319
5.7044
5.7231
5.7123
5.7024
5.7401
5.7320
5.7451
5.7136
5.7133
5.7131
5.7305
5.7304
5.7143
5.7257
5.7116
5.7197
5.7138
5.7267
5.7240
5.6983
5.7083
5.6982
5.7281
5.7117
5.7136
5.7001
5.7018
5.7155
5.7067
5.7223
5.7211
5.7004
5.7029
5.7256
5.7040
5.7034
5.6993
5.6855
5.7101
5.7412
5.7132
5.7065
5.6961
5.7004
5.7177
5.7166
5.7026
5.7086
5.6989
5.7155
5.7256
5.7006
5.6971
5.7011
5.7163
5.6939
5.7066
5.6944
5.7292
5.7115
5.6974
5.6979
5.7014
5.7132
5.7164
5.7008
5.7177
5.7348
5.6989
5.7026
5.7025
5.6843
5.7083
5.6957
5.6945
5.6883
5.7045
5.7040
5.6916
5.6752
5.6906
5.6834
5.7066
5.7152
5.6867
5.7049
5.6825
5.7018
5.6863
5.6777
5.6641
5.7054
5.6877
5.7009
5.6864
5.6951
5.6762
5.7101
5.6915
5.6923
5.7116
5.7014
5.6912
5.6890
5.6898
5.6631
5.7006
5.7069
5.7001
5.6934
5.6866
5.6673
5.6840
5.6969
5.6707
5.6881
5.6786
5.6728
5.6939
5.6823
5.6876
5.6691
5.6779
5.6797
5.6725
5.6878
5.6702
5.6817
5.6683
5.6679
5.7080
5.7013
5.6507
5.6594
5.6856
5.6750
5.6801
5.6651
5.6739
5.6585
5.6723
5.6721
5.6745
5.6797
5.6728
5.6538
5.6513
5.6740
5.6515
5.6502
5.6730
5.6674
5.6562
5.6619
5.6519
5.6778
5.6535
5.6482
5.6472
5.6629
5.6633
5.6698
5.6587
5.6516
5.6833
5.6383
5.6583
5.6615
5.6549
5.6514
5.6883
5.6522
5.6537
5.6450
5.6718
5.6849
5.6319
5.6593
5.6475
5.6702
5.6608
5.6688
5.6634
5.6601
5.6585
5.6580
5.6592
5.6636
5.6528
5.6602
5.6470
5.6411
5.6562
5.6398
5.6586
5.6252
5.6305
5.6348
5.6707
5.6485
5.6648
5.6483
5.6370
5.6456
5.6539
5.6575
5.6543
5.6430
5.6341
5.6327
5.6492
5.6514
5.6799
5.6458
5.6542
5.6560
5.6155
5.6569
5.6374
5.6218
5.6643
5.6556
5.6224
5.6613
5.6641
5.6613
5.6439
5.6535
5.6297
5.6678
5.6574
5.6337
5.6470
5.6390
5.6045
5.6525
5.6633
5.6449
5.6514
5.6231
5.6653
5.6310
5.6505
5.6177
5.6245
5.6274
5.6170
5.6421
5.6359
5.6189
5.6518
5.6686
5.6487
5.6633
5.6613
5.6415
5.6464
5.6621
5.6571
5.6324
5.6220
5.6300
5.6409
5.6213
5.6298
5.6563
5.6423
5.6157
5.6442
5.6108
5.6408
5.6119
5.6158
5.6253
5.6082
5.6157
5.6389
5.6326
5.6265
5.6224
5.6173
5.6199
5.6125
5.6380
5.6237
5.6100
5.6080
5.6217
5.6398
5.6275
5.6193
5.6189
5.5955
5.6132
5.5878
5.6286
5.6092
5.6378
5.6288
5.6311
5.6564
5.6444
5.6246
5.6155
5.6187
5.6224
5.6317
5.6344
5.6178
5.6161
5.6082
5.6174
5.6059
5.6094
5.6247
5.6211
5.6096
5.6367
5.5970
5.6284
5.6136
5.6146
5.6283
5.6078
5.6061
5.6143
5.5807
5.6353
5.6244
5.5989
5.6285
5.5976
5.6072
5.6060
5.6158
5.6122
5.5946
5.6211
5.6312
5.6023
5.6149
5.5808
5.6076
5.6198
5.5996
5.5828
5.6054
5.6123
5.6044
5.5950
5.5844
5.5954
5.5937
5.5949
5.5987
5.6241
5.6016
5.5823
5.6161
5.6171
5.6008
5.5919
5.5876
5.5969
5.5728
5.5930
5.5983
5.5778
5.5923
5.6094
5.6175
5.5680
5.5683
5.5777
5.5611
5.5933
5.6076
5.5967
5.5919
5.6257
5.6015
5.6097
5.6175
5.6147
5.5991
5.6118
5.5842
5.6134
5.6083
5.5877
5.5622
5.6196
5.6061
5.5801
5.5973
5.6212
5.6072
5.5932
5.5939
5.5963
5.6015
5.5850
5.5939
5.5965
5.5783
5.5892
5.5919
5.6104
5.6137
5.6085
5.5811
5.5804
5.5994
5.5782
5.5877
5.5970
5.5794
5.5701
5.5719
5.5666
5.5430
5.5691
5.5878
5.5587
5.5668
5.6072
5.5864
5.5910
5.5776
5.5809
5.5730
5.5840
5.5782
5.5803
5.5574
5.5695
5.5698
5.5858
5.5787
5.5750
5.5852
5.5576
5.5813
5.5760
5.6058
5.5803
5.5843
5.5949
5.5691
5.5694
5.5687
5.5878
5.5804
5.5425
5.5827
5.5734
5.5855
5.5857
5.5635
5.5760
5.5727
5.5751
5.5917
5.5718
5.6028
5.5625
5.5852
5.5588
5.6142
5.5815
5.5837
5.5874
5.5633
5.5684
5.5598
5.6056
5.5504
5.5635
5.5653
5.5596
5.5686
5.5791
5.5804
5.5516
5.5976
5.5684
5.5615
5.5416
5.5738
5.5733
5.5741
5.5499
5.5677
5.5793
5.5787
5.5740
5.5576
5.5694
5.5711
5.5893
5.5540
5.5788
5.5561
5.5476
5.5589
5.5763
5.5592
5.5602
5.5619
5.5672
5.5550
5.5811
5.5685
5.5566
5.5621
5.5998
5.5788
5.5710
5.5439
5.5595
5.5841
5.5568
5.5842
5.5713
5.5400
5.5731
5.5568
5.5585
5.5709
5.5792
5.5797
5.5890
5.5451
5.5647
5.5294
5.5433
5.5351
5.5830
5.5633
5.5534
5.5372
5.5617
5.5590
5.5511
5.5573
5.5497
5.5489
5.5485
5.5832
5.5695
5.5576
5.5712
5.5453
5.5528
5.5825
5.5617
5.5644
5.5822
5.5449
5.5613
5.5477
5.5260
5.5538
5.5520
5.5251
5.5607
5.5797
5.5739
5.5205
5.5558
5.5301
5.5533
5.5477
5.5424
5.5118
5.5432
5.5681
5.5582
5.5745
5.5285
5.5310
5.5303
5.5157
5.5507
5.5613
5.5326
5.5560
5.5357
5.5430
5.5488
5.5618
5.5499
5.5634
5.5525
5.5511
5.5557
5.5586
5.5341
5.5286
5.5612
5.5615
5.5426
5.5194
5.5469
5.5184
5.5330
5.5263
5.5522
5.5491
5.5402
5.5525
5.5430
5.5516
5.5079
5.5594
5.5661
5.5691
5.5595
5.5026
5.5230
5.5260
5.5230
5.5411
5.5301
5.5327
5.5379
5.5479
5.5351
5.5115
5.5213
5.5562
5.5294
5.5772
5.5397
5.5441
5.5455
5.5328
5.5451
5.5234
5.5165
5.5229
5.5043
5.5187
5.5198
5.5316
5.5723
5.5346
5.5376
5.5468
5.5232
5.5582
5.5196
5.5416
5.5291
5.5292
5.5235
5.5130
5.5447
5.5370
5.5481
5.5492
5.5323
5.5161
5.5543
5.5297
5.5541
5.5316
5.5510
5.5068
5.5095
5.5522
5.5097
5.5217
5.5175
5.4944
5.5273
5.5375
5.5159
5.5468
5.5347
5.5448
5.5070
5.5037
5.5052
5.5367
5.5540
5.5228
5.5197
5.5392
5.5154
5.5396
5.5193
5.5406
5.5388
5.5123
5.4869
5.5228
5.4792
5.5442
5.5127
5.5155
5.5266
5.5354
5.5330
5.5463
5.5130
5.5289
5.5196
5.5120
5.5453
5.5173
5.5167
5.4902
5.5166
5.5034
5.5158
5.5201
5.5135
5.4950
5.5092
5.5367
5.4954
5.4912
5.5220
5.5064
5.5113
5.5049
5.5266
5.5079
5.5133
5.5225
5.5186
5.5171
5.4900
5.5148
5.5244
5.4972
5.5276
5.5257
5.5106
5.5374
5.5008
5.5035
5.5031
5.5281
5.5031
5.5244
5.5106
5.5021
5.5138
5.5232
5.4953
5.5136
5.5085
5.4970
5.4770
5.4954
5.4714
5.5398
5.5192
5.5227
5.5316
5.5187
5.5151
5.5526
5.5052
5.5361
5.5300
5.5155
5.5119
5.5095
5.5153
5.5148
5.4889
5.5164
5.5172
5.4582
5.5251
5.4699
5.4893
5.4981
5.4877
5.5119
5.4845
5.5434
5.4927
5.5025
5.5008
5.4994
5.4757
5.5150
5.5091
5.5290
5.4654
5.4916
5.5005
5.5008
5.5165
5.5152
5.5175
5.4784
5.5085
5.5259
5.4787
5.4850
5.5225
5.4643
5.5074
5.5065
5.5110
5.4820
5.4865
5.5011
5.4803
5.4919
5.4870
5.4945
5.4868
5.5211
5.4939
5.4755
5.4997
5.4687
5.5150
5.4847
5.4971
5.4945
5.4889
5.4863
5.5041
5.5208
5.4881
5.4926
5.4950
5.4970
5.4681
5.4869
5.4954
5.4885
5.4733
5.4820
5.4819
5.5013
5.4832
5.5388
5.4794
5.4778
5.5001
5.5190
5.4997
5.4868
5.4900
5.4992
5.4887
5.5043
5.4993
5.4698
5.4805
5.4957
5.5035
5.4996
5.4690
5.4864
5.5106
5.4479
5.5015
5.4902
5.4792
5.5188
5.4736
5.5083
5.4881
5.4859
5.4845
5.4982
5.4930
5.4755
5.5317
5.4923
5.4619
5.4927
5.4524
5.4822
5.4790
5.4514
5.4617
5.5015
5.4375
5.4755
5.4822
5.4420
5.4719
5.4789
5.4874
5.4792
5.5184
5.4794
5.4422
5.5103
5.4842
5.5273
5.4803
5.5004
5.4937
5.4866
5.4818
5.4702
5.4685
5.4821
5.4798
5.4779
5.4579
5.4886
5.4892
5.4914
5.4636
5.4844
5.4657
5.4772
5.4905
5.4591
5.4689
5.4707
5.5067
5.4778
5.4738
5.4735
5.4852
5.4636
5.5203
5.4787
5.4723
5.4876
5.5004
5.4544
5.4788
5.4743
5.4902
5.4595
5.5002
5.4417
5.4742
5.4595
5.4651
5.4837
5.4797
5.4795
5.4315
5.4639
5.4929
5.4653
5.4749
5.4740
5.4914
5.5090
5.4484
5.4713
5.4481
5.4651
5.4385
5.4513
5.4702
5.4548
5.4592
5.4559
5.4766
5.4861
5.4740
5.4581
5.4446
5.4686
5.4524
5.4759
5.4739
5.4984
5.4383
5.4816
5.4572
5.4771
5.4537
5.4388
5.4385
5.4514
5.4481
5.4093
5.4801
5.4668
5.4739
5.4502
5.4621
5.4699
5.4944
5.4636
5.4522
5.5060
5.4993
5.4941
5.4562
5.4582
5.4691
5.4613
5.4558
5.4759
5.4684
5.4689
5.4872
5.4324
5.4956
5.4238
5.4393
5.4680
5.4812
5.4883
5.4629
5.4445
5.4221
5.4180
5.4542
5.4216
5.4451
5.4645
5.4357
5.4789
5.4320
5.4924
5.4698
5.4487
5.4580
5.4362
5.4592
5.4636
5.4798
5.4692
5.4635
5.4290
5.4459
5.4628
5.4715
5.4540
5.4665
5.4910
5.4591
5.4377
5.4503
5.4485
5.4755
5.4713
5.4531
5.4538
5.4465
5.4566
5.4532
5.4771
5.4458
5.4400
5.4510
5.4384
5.4322
5.4787
5.4746
5.4695
5.4595
5.4547
5.4511
5.4377
5.4301
5.4536
5.4380
5.4136
5.4445
5.4606
5.4699
5.4641
5.4468
5.4565
5.4582
5.4422
5.4290
5.4335
5.4555
5.4671
5.4669
5.4153
5.4166
5.4556
5.4550
5.4455
5.4437
5.4561
5.4427
5.4425
5.4458
5.4308
5.4352
5.4565
5.4457
5.4501
5.4603
5.4575
5.4014
5.4473
5.4342
5.4596
5.4404
5.4297
5.4336
5.4474
5.4515
5.4324
5.4378
5.4473
5.4398
5.4410
5.4391
5.4080
5.4205
5.4493
5.4832
5.4290
5.4570
5.4302
5.4471
5.4382
5.4144
5.4449
5.4035
5.4217
5.4234
5.4489
5.4437
5.4123
5.4388
5.4186
5.4336
5.4143
5.4332
5.4589
5.4239
5.4315
5.4294
5.4681
5.4296
5.4463
5.4298
5.4236
5.4363
5.4631
5.4573
5.4579
5.4404
5.4424
5.4261
5.4260
5.4301
5.4245
5.4386
5.3888
5.4333
5.4335
5.4615
5.4304
5.4264
5.4191
5.4551
5.4261
5.4619
5.4616
5.4397
5.4509
5.4215
5.4359
5.4464
5.4658
5.4280
5.4283
5.4156
5.4202
5.4495
5.4303
5.4313
5.4054
5.4347
5.4002
5.4373
5.4401
5.4074
5.4405
5.4231
5.4414
5.4122
5.4286
5.4480
5.4526
5.4120
5.4609
5.4186
5.4450
5.4282
5.4368
5.4497
5.4412
5.4421
5.4230
5.4143
5.4381
5.4072
5.4018
5.4416
5.4226
5.4212
5.4202
5.4248
5.3956
5.4067
5.4549
5.4005
5.4186
5.4315
5.4100
5.4371
5.4412
5.4244
5.4346
5.4654
5.4155
5.4317
5.4481
5.4109
5.4030
5.4089
5.4345
5.4155
5.4245
5.4116
5.4115
5.4314
5.4074
5.3893
5.4325
5.4122
5.4269
5.4434
5.3687
5.4249
5.4249
5.3957
5.3975
5.4275
5.4238
5.4424
5.4302
5.4493
5.4509
5.4225
5.4209
5.4258
5.4242
5.4359
5.4230
5.4150
5.4439
5.4109
5.4211
5.4150
5.4477
5.3953
5.4172
5.4140
5.4365
5.3941
5.4337
5.4144
5.4049
5.4165
5.3936
5.4284
5.4076
5.4184
5.4515
5.4087
5.3972
5.3774
5.4280
5.4020
5.4094
5.4201
5.3799
5.4267
5.4137
5.4090
5.4231
5.4384
5.3982
5.4018
5.4224
5.4051
5.3888
5.4438
5.3909
5.4062
5.4344
5.4204
5.3939
5.3966
5.4158
5.3813
5.3951
5.4111
5.4154
5.4291
5.3840
5.4292
5.4202
5.3961
5.4179
5.4106
5.4117
5.3827
5.4271
5.4146
5.3720
5.4198
5.4188
5.4591
5.4172
5.4021
5.3961
5.3960
5.4092
5.4006
5.3999
5.4390
5.3934
5.3990
5.4023
5.3996
5.3755
5.3965
5.4119
5.4025
5.4237
5.4119
5.4247
5.4273
5.4062
5.4069
5.4515
5.4402
5.4031
5.4228
5.3981
5.4093
5.4116
5.4130
5.4039
5.4128
5.4084
5.4355
5.4029
5.4057
5.4363
5.3947
5.3896
5.3949
5.4353
5.3798
5.4049
5.4039
5.4202
5.4336
5.3971
5.3831
5.3822
5.3800
5.3996
5.4076
5.3882
5.3923
5.4204
5.3720
5.4049
5.3577
5.3940
5.3943
5.3933
5.3973
5.3703
5.3892
5.4128
5.3960
5.4262
5.4072
5.3866
5.4031
5.4044
5.3935
5.3991
5.4019
5.4041
5.4056
5.4066
5.3758
5.3802
5.3801
5.4074
5.3814
5.3567
5.3944
5.4115
5.3948
5.3952
5.3857
5.3392
5.3979
5.4065
5.3831
5.4229
5.3860
5.4103
5.3970
5.3968
5.3828
5.3983
5.3965
5.3858
5.3802
5.3839
5.3493
5.3866
5.3861
5.3726
5.3870
5.3717
5.3996
5.3650
5.3685
5.3739
5.3845
5.3767
5.3971
5.3922
5.3778
5.3792
5.3931
5.3705
5.3788
5.3630
5.3758
5.4002
5.4155
5.3736
5.3651
5.4108
5.4047
5.4061
5.4040
5.3925
5.3859
5.3651
5.3964
5.3820
5.3816
5.3668
5.3568
5.4097
5.3714
5.3773
5.4037
5.3923
5.4007
5.4025
5.4019
5.3889
5.3656
5.4211
5.3860
5.4130
5.3717
5.4086
5.4107
5.4065
5.4015
5.3789
5.3588
5.3707
5.3771
5.4035
5.3739
5.3753
5.3526
5.4058
5.3904
5.4227
5.4032
5.4172
5.3601
5.3801
5.3897
5.3691
5.4084
5.3775
5.3813
5.3863
5.3895
5.4060
5.3863
5.3565
5.4269
5.4141
5.3944
5.3802
5.3752
5.4138
5.3994
5.3989
5.3709
5.3847
5.3627
5.4196
5.4142
5.3884
5.4008
5.3779
5.3673
5.3767
5.3815
5.3528
5.3555
5.3683
5.3824
5.3622
5.3614
5.3862
5.3550
5.3576
5.4057
5.3790
5.3850
5.3832
5.3630
5.3598
5.3718
5.3692
5.3572
5.3886
5.3649
5.3392
5.3797
5.3958
5.3669
5.3768
5.3628
5.3610
5.3763
5.3881
5.3701
5.3837
5.3734
5.3836
5.3607
5.3614
5.3972
5.3819
5.3927
5.3460
5.3512
5.3573
5.3349
5.3590
5.3493
5.3587
5.3692
5.3841
5.3679
5.3841
5.3714
5.3637
5.3572
5.3516
5.3631
5.3757
5.4204
5.3773
5.3587
5.3821
5.3549
5.3873
5.3579
5.3660
5.3857
5.3618
5.3720
5.3668
5.3650
5.3733
5.3940
5.3944
5.3794
5.3585
5.3786
5.3606
5.3679
5.3481
5.3772
5.3804
5.3716
5.3479
5.3651
5.3835
5.3541
5.3733
5.3430
5.3738
5.3560
5.3518
5.3377
5.3486
5.3431
5.3683
5.3718
5.3635
5.3978
5.3641
5.3607
5.3505
5.3794
5.3459
5.3698
5.3411
5.3370
5.3771
5.3269
5.3825
5.3462
5.3671
5.3392
5.3615
5.3634
5.3823
5.3341
5.3836
5.3531
5.3339
5.3305
5.3842
5.3716
5.3585
5.3487
5.4014
5.3646
5.3443
5.3504
5.3785
5.3581
5.3492
5.3343
5.3858
5.3592
5.3440
5.3629
5.3757
5.3595
5.3946
5.3310
5.3518
5.3507
5.3666
5.3432
5.3832
5.3472
5.3654
5.3764
5.3393
5.3425
5.3475
5.3394
5.3922
5.3524
5.3525
5.3519
5.3629
5.3549
5.3840
5.3639
5.3618
5.3555
5.3619
5.3492
5.3914
5.3591
5.3454
5.3438
5.3690
5.3698
5.3281
5.3809
5.3520
5.3230
5.3791
5.3862
5.3803
5.3225
5.3615
5.3273
5.3568
5.3437
5.3394
5.3608
5.3634
5.3588
5.3538
5.3165
5.3368
5.3861
5.3285
5.3694
5.3846
5.3417
5.3566
5.3724
5.3362
5.3213
5.3344
5.3647
5.3442
5.3571
5.3409
5.3388
5.3595
5.3448
5.3048
5.3657
5.3720
5.3459
5.3215
5.3714
5.3661
5.3512
5.3526
5.3457
5.3458
5.3375
5.3594
5.3701
5.3710
5.3672
5.3344
5.3490
5.3826
5.3693
5.3210
5.3513
5.3351
5.3117
5.3296
5.3462
5.3359
5.3353
5.3263
5.3375
5.3462
5.3577
5.3349
5.3256
5.3438
5.3542
5.3505
5.3197
5.3055
5.3454
5.3574
5.3475
5.3280
5.3167
5.3604
5.3353
5.3450
5.3219
5.3506
5.3490
5.3515
5.3132
5.3274
5.3511
5.3243
5.3456
5.3456
5.3362
5.3516
5.3425
5.3614
5.3603
5.3034
5.3664
5.3449
5.3485
5.3409
5.3553
5.3589
5.3502
5.3365
5.3127
5.3206
5.3638
5.3406
5.3331
5.3604
5.3387
5.3199
5.3281
5.3555
5.3453
5.3585
5.3564
5.3590
5.3076
5.3405
5.3477
5.3314
5.3317
5.3411
5.3913
5.3056
5.3619
5.3381
5.3278
5.3127
5.3425
5.3276
5.3221
5.3353
5.3435
5.3383
5.3505
5.3746
5.3426
5.3400
5.3219
5.3356
5.3092
5.3358
5.3220
5.3376
5.3183
5.3416
5.2951
5.3440
5.3402
5.3331
5.3591
5.3883
5.3374
5.3448
5.3126
5.3357
5.3707
5.3367
5.3419
5.3356
5.3576
5.3495
5.3459
5.3180
5.3386
5.3054
5.3475
5.3191
5.3219
5.2920
5.3325
5.3361
5.3333
5.3141
5.3226
5.3151
5.3188
5.3608
5.3394
5.3409
5.3208
5.3209
5.3118
5.3128
5.3341
5.3401
5.3238
5.3107
5.3487
5.3061
5.3287
5.3666
5.3322
5.3192
5.3657
5.3378
5.3491
5.3332
5.3322
5.3583
5.3263
5.3586
5.3227
5.3562
5.3245
5.3540
5.3277
5.3509
5.3177
5.3440
5.3622
5.3464
5.3198
5.3689
5.3655
5.3685
5.3354
5.2995
5.3179
5.3242
5.3101
5.3634
5.3427
5.3141
5.3519
5.3431
5.3156
5.3259
5.3201
5.3129
5.3125
5.3487
5.3717
5.3233
5.3139
5.3314
5.3303
5.3143
5.3451
5.3171
5.3326
5.3276
5.3323
5.3385
5.3287
5.3123
5.3184
5.3430
5.3250
5.3293
5.3144
5.3136
5.3343
5.3256
5.3520
5.2961
5.3307
5.3248
5.3411
5.3477
5.3238
5.3249
5.3192
5.3479
5.3393
5.3267
5.3061
5.3044
5.3090
5.3428
5.3322
5.3206
5.3453
5.3315
5.3348
5.3089
5.3101
5.3026
5.3019
5.3642
5.3108
5.3133
5.3115
5.3292
5.2774
5.3010
5.3123
5.3069
5.3490
5.3260
5.3082
5.3218
5.3341
5.3331
5.3212
5.3422
5.3467
5.3298
5.2952
5.3357
5.3366
5.2947
5.2806
5.3215
5.2716
5.3339
5.3154
5.3259
5.3110
5.3176
5.3305
5.3596
5.2901
5.2977
5.3167
5.3193
5.3134
5.3058
5.2831
5.3221
5.3211
5.3307
5.3358
5.3481
5.3068
5.3200
5.3494
5.3025
5.3448
5.3152
5.2727
5.2997
5.3547
5.3487
5.3093
5.3118
5.2937
5.3110
5.3115
5.2892
5.3405
5.3147
5.3117
5.3211
5.3386
5.3186
5.3015
5.3341
5.3191
5.2793
5.3395
5.3030
5.3187
5.3397
5.3144
5.2989
5.2961
5.2921
5.3172
5.2985
5.2928
5.2639
5.3131
5.3371
5.3187
5.2959
5.3220
5.3124
5.2709
5.2956
5.3148
5.2992
5.2777
5.3092
5.3319
5.3056
5.3281
5.3168
5.3197
5.3170
5.3181
5.3188
5.3207
5.3074
5.3240
5.3215
5.2657
5.3014
5.2595
5.3033
5.3075
5.3171
5.3081
5.3106
5.2935
5.3287
5.3068
5.2907
5.2798
5.3130
5.2790
5.3004
5.3201
5.2970
5.2897
5.3309
5.2944
5.3148
5.3115
5.2966
5.3191
5.2987
5.2907
5.2888
5.3060
5.2965
5.2916
5.3334
5.3558
5.2932
5.3307
5.3521
5.2955
5.3257
5.3068
5.3280
5.3191
5.2915
5.3336
5.2867
5.3184
5.2995
5.3130
5.3448
5.3136
5.2793
5.3103
5.2980
5.3206
5.3068
5.3172
5.3124
5.2888
5.3056
5.3150
5.2966
5.3107
5.2768
5.3264
5.3471
5.3439
5.2978
5.3169
5.2950
5.2931
5.2663
5.2790
5.3187
5.3392
5.3084
5.3159
5.2716
5.2867
5.3032
5.2828
5.2995
5.3079
5.3193
5.3159
5.3137
5.3165
5.2983
5.2664
5.3396
5.3240
5.2926
5.3225
5.3141
5.2969
5.3127
5.2678
5.2867
5.3152
5.2862
5.3177
5.3194
5.3204
5.3054
5.2798
5.3320
5.3062
5.2960
5.3441
5.2973
5.3104
5.2895
5.3032
5.2993
5.2875
5.3175
5.3149
5.3075
5.3280
5.3067
5.2391
5.2813
5.3084
5.3086
5.3295
5.2960
5.3021
5.3155
5.3115
5.3113
5.2991
5.3137
5.2871
5.3229
5.2887
5.2930
5.2893
5.2818
5.3210
5.3139
5.3524
5.3050
5.2820
5.3002
5.2731
5.3040
5.2909
5.2928
5.3071
5.2920
5.3316
5.3441
5.3249
5.3173
5.3042
5.2922
5.2946
5.2791
5.3176
5.2968
5.2834
5.2884
5.3094
5.2990
5.2943
5.3104
5.2560
5.3000
5.3115
5.2965
5.2525
5.2671
5.2765
5.2957
5.3066
5.3004
5.3278
5.3145
5.2939
5.3046
5.3000
5.2868
5.2991
5.2691
5.3054
5.2757
5.2844
5.3123
5.2894
5.3155
5.2621
5.3161
5.2751
5.3136
5.3110
5.2952
5.2960
5.2478
5.3039
5.3138
5.2990
5.3008
5.2888
5.2798
5.2507
5.3100
5.2682
5.3391
5.3300
5.2946
5.2922
5.3188
5.2903
5.2951
5.3026
5.2804
5.3133
5.3004
5.2548
5.3144
5.3089
5.2873
5.2383
5.2989
5.2757
5.3080
5.3069
5.2586
5.3062
5.3019
5.2990
5.2962
5.2861
5.2892
5.2707
5.2872
5.2891
5.2849
5.3018
5.2824
5.2559
5.2925
5.2933
5.2758
5.2769
5.3038
5.2960
5.2802
5.3206
5.2862
5.2994
5.3089
5.2708
5.2719
5.2692
5.2985
5.2749
5.2736
5.3068
5.2976
5.2401
5.2705
5.2658
5.2743
5.2876
5.2650
5.2742
5.3106
5.2796
5.2732
5.2856
5.2908
5.2653
5.2824
5.2842
5.2786
5.2913
5.2838
5.2777
5.2868
5.3023
5.2716
5.2765
5.2874
5.2801
5.2894
5.3136
5.3095
5.2701
5.2753
5.2831
5.2757
5.2805
5.3180
5.3137
5.2868
5.2939
5.2415
5.2953
5.2982
5.2914
5.2806
5.2394
5.2937
5.2964
5.2962
5.2806
5.2925
5.2813
5.2370
5.2881
5.2848
5.2982
5.3136
5.2991
5.2493
5.2737
5.3041
5.2931
5.2961
5.2671
5.3030
5.3056
5.3016
5.2871
5.2917
5.3004
5.2350
5.3139
5.3136
5.2890
5.3001
5.2630
5.2783
5.2891
5.2831
5.2625
5.2943
5.2874
5.3298
5.2602
5.2562
5.2914
5.2649
5.2465
5.2964
5.2989
5.2701
5.2892
5.2955
5.2413
5.2878
5.2670
5.2591
5.2830
5.2842
5.2963
5.2822
5.3196
5.2884
5.2734
5.3137
5.2710
5.2684
5.2626
5.2724
5.2883
5.2675
5.2946
5.2556
5.3030
5.3042
5.2992
5.2723
5.2647
5.2675
5.3002
5.2724
5.2474
5.2584
5.2801
5.2778
5.2559
5.2488
5.2944
5.3211
5.2861
5.2808
5.2902
5.3034
5.2490
5.2587
5.2639
5.2617
5.2681
5.2461
5.2636
5.2458
5.2727
5.2613
5.3038
5.2525
5.2830
5.2641
5.2640
5.2494
5.3126
5.2681
5.3105
5.2741
5.2822
5.2866
5.2895
5.3078
5.2929
5.2741
5.3046
5.2474
5.2677
5.2869
5.2875
5.2386
5.2679
5.2572
5.2756
5.2621
5.2710
5.2647
5.2321
5.2506
5.2678
5.2824
5.2548
5.2901
5.2592
5.2827
5.2930
5.2735
5.2648
5.2989
5.2808
5.2625
5.3162
5.2510
5.2865
5.2677
5.2916
5.2597
5.2456
5.2696
5.2546
5.2769
5.3001
5.2899
5.2797
5.2846
5.2671
5.2690
5.2447
5.3000
5.2536
5.2580
5.2440
5.2436
5.2569
5.2767
5.2580
5.2449
5.2632
5.2781
5.2585
5.2481
5.2594
5.2642
5.2587
5.2836
5.2552
5.2849
5.2800
5.2589
5.2922
5.2710
5.2922
5.2949
5.2849
5.2628
5.2811
5.2938
5.2568
5.2610
5.3063
5.2630
5.2525
5.2836
5.2804
5.2492
5.2850
5.2361
5.2806
5.2543
5.2518
5.2661
5.2454
5.2307
5.2808
5.2396
5.2642
5.2621
5.2852
5.2603
5.2839
5.2803
5.3117
5.2558
5.3003
5.2611
5.2741
5.2878
5.2343
5.3006
5.2384
5.2845
5.2742
5.2755
5.2461
5.2589
5.2439
5.3127
5.2481
5.2812
5.2536
5.2577
5.2377
5.2773
5.2802
5.2983
5.2759
5.2478
5.2724
5.2572
5.2689
5.2420
5.2709
5.2379
5.2662
5.2777
5.3047
5.2600
5.2852
5.2477
5.2732
5.2754
5.2555
5.2641
5.2531
5.2619
5.2297
5.2451
5.2546
5.2653
5.2942
5.2428
5.2602
5.2426
5.2509
5.2596
5.2672
5.2650
5.2717
5.2742
5.2478
5.2822
5.2160
5.2417
5.2816
5.2154
5.2675
5.2146
5.2398
5.2462
5.2618
5.2318
5.2960
5.2800
5.2388
5.2976
5.2845
5.2361
5.2398
5.3175
5.2579
5.2514
5.2776
5.2809
5.2488
5.2402
5.2623
5.2560
5.2915
5.2712
5.2709
5.2745
5.2772
5.2694
5.2367
5.2844
5.2901
5.2856
5.2355
5.2756
5.2284
5.2631
5.2356
5.2294
5.2468
5.2695
5.2790
5.2421
5.2335
5.2471
5.2590
5.2584
5.2350
5.2577
5.2429
5.2699
5.2469
5.2484
5.2590
5.2655
5.2219
5.2722
5.2502
5.2073
5.2720
5.2654
5.2661
5.2618
5.2336
5.2694
5.2256
5.2590
5.2605
5.2589
5.2703
5.2329
5.2424
5.2795
5.2538
5.2303
5.2146
5.2941
5.2427
5.2625
5.2555
5.2243
5.2579
5.2520
5.2317
5.2297
5.2153
5.2264
5.2514
5.2460
5.2739
5.3022
5.2745
5.2593
5.2314
5.2459
5.2548
5.2443
5.2508
5.2385
5.2488
5.2512
5.2378
5.2229
5.2687
5.2813
5.2509
5.2483
5.2418
5.2233
5.2438
5.2711
5.2608
5.2434
5.3105
5.2509
5.2723
5.2663
5.2479
5.2202
5.2544
5.2548
5.2527
5.2593
5.2488
5.2635
5.2443
5.2415
5.2552
5.2604
5.2451
5.2567
5.2698
5.2849
5.2197
5.2421
5.2372
5.2436
5.2626
5.2649
5.2180
5.2439
5.2439
5.2213
5.2341
5.2577
5.2585
5.2719
5.2238
5.1824
5.2310
5.2735
5.2470
5.2423
5.2393
5.2457
5.2525
5.2467
5.2399
5.2382
5.2127
5.2406
5.2454
5.2309
5.2330
5.2119
5.2379
5.2536
5.2719
5.2586
5.2636
5.2672
5.2616
5.2640
5.2475
5.2266
5.2070
5.2428
5.2310
5.2676
5.2495
5.2614
5.2594
5.2336
5.2537
5.2191
5.2724
5.1937
5.2249
5.2377
5.2671
5.2576
5.2364
5.2471
5.2675
5.2567
5.2578
5.2437
5.2269
5.2841
5.2552
5.2377
5.2547
5.2628
5.2423
5.2314
5.2368
5.2482
5.2196
5.2241
5.2194
5.2374
5.2437
5.2478
5.2684
5.2297
5.2085
5.2657
5.2679
5.2668
5.2159
5.2730
5.2351
5.2276
5.2084
5.2386
5.2243
5.2638
5.2549
5.2053
5.2391
5.1581
5.2200
5.2463
5.2619
5.2380
5.2497
5.2713
5.2640
5.2747
5.2632
5.2503
5.2432
5.2120
5.2557
5.2589
5.2753
5.2580
5.2433
5.2278
5.2414
5.2220
5.2273
5.2123
5.2158
5.2341
5.2374
5.2359
5.2446
5.2538
5.2805
5.2552
5.2473
5.2900
5.2130
5.2538
5.2027
5.2510
5.2283
5.2229
5.2642
5.2606
5.2422
5.2304
5.2081
5.2209
5.2333
5.2410
5.2552
5.2315
5.2358
5.2360
5.2440
5.2358
5.2469
5.2520
5.2555
5.2522
5.2531
5.2230
5.2107
5.2218
5.2380
5.2360
5.2502
5.2067
5.2375
5.1922
5.2194
5.2293
5.2115
5.2519
5.2497
5.2772
5.2372
5.1841
5.2213
5.2217
5.2305
5.2500
5.2388
5.2481
5.2261
5.2788
5.2509
5.2501
5.2264
5.2413
5.2454
5.2075
5.2195
5.2849
5.2309
5.2281
5.2529
5.2322
5.2225
5.2185
5.2453
5.2470
5.2485
5.2341
5.2046
5.2055
5.2359
5.2417
5.2328
5.1822
5.2714
5.2043
5.2472
5.2409
5.2314
5.2244
5.2201
5.2470
5.2419
5.2452
5.2612
5.2118
5.2302
5.2477
5.2185
5.2361
5.2246
5.2309
5.2170
5.2312
5.2332
5.2490
5.2083
5.2315
5.2105
5.2294
5.2584
5.2084
5.2025
5.2525
5.2140
5.2124
5.2335
5.2480
5.2120
5.2287
5.2546
5.2507
5.2138
5.2132
5.2610
5.2496
5.2195
5.1980
5.2530
5.2544
5.2099
5.2672
5.2175
5.2149
5.2532
5.2203
5.2491
5.2369
5.2237
5.2047
5.2117
5.2416
5.2308
5.2286
5.2516
5.2263
5.2183
5.2298
5.2298
5.2436
5.2226
5.2473
5.2427
5.2081
5.2655
5.2060
5.2090
5.2224
5.1930
5.2467
5.2146
5.2201
5.2848
5.2183
5.2011
5.2139
5.2447
5.2136
5.2186
5.2108
5.2164
5.1829
5.2187
5.2054
5.2231
5.2252
5.2264
5.2141
5.2459
5.2051
5.2552
5.2519
5.2596
5.2447
5.2160
5.2229
5.2349
5.2217
5.2530
5.2029
5.2154
5.2180
5.2197
5.2504
5.2503
5.2235
5.2096
5.2322
5.2243
5.2599
5.2228
5.2125
5.2272
5.1923
5.1722
5.2253
5.2077
5.2401
5.1968
5.2090
5.2458
5.1796
5.1736
5.2344
5.2018
5.2242
5.2058
5.1770
5.2596
5.1912
5.2172
5.1893
5.2521
5.2293
5.2467
5.2134
5.2211
5.2196
5.2357
5.2253
5.2321
5.2145
5.2283
5.2430
5.1719
5.2430
5.2156
5.2407
5.2170
5.2149
5.1961
5.2381
5.2079
5.2291
5.1960
5.2323
5.2556
5.2552
5.2111
5.1894
5.2385
5.2340
5.2200
5.2224
5.1953
5.2295
5.2371
5.1960
5.2167
5.1808
5.1996
5.2303
5.2135
5.1853
5.2176
5.2460
5.2442
5.2152
5.2050
5.2213
5.2166
5.1980
5.2333
5.2260
5.2224
5.2301
5.2073
5.2186
5.2300
5.1975
5.1968
5.1912
5.1513
5.2193
5.1903
5.2042
5.2257
5.2028
5.2097
5.1795
5.2100
5.2069
5.2309
5.2208
5.1802
5.1903
5.2286
5.2285
5.2263
5.2423
5.2274
5.2176
5.2256
5.2327
5.1936
5.2284
5.2079
5.2107
5.2652
5.2084
5.2302
5.2237
5.2123
5.2385
5.2088
5.2191
5.1745
5.2082
5.2057
5.2282
5.1947
5.2012
5.1713
5.1950
5.1986
5.2392
5.1908
5.1953
5.2217
5.2188
5.2083
5.1988
5.1912
5.1910
5.1855
5.1771
5.2079
5.2303
5.2237
5.2054
5.2566
5.1960
5.2272
5.2009
5.1932
5.2183
5.1829
5.2047
5.2292
5.2095
5.2139
5.2391
5.2252
5.1928
5.2239
5.2198
5.2035
5.2046
5.1596
5.2313
5.2409
5.2359
5.2040
5.2279
5.2215
5.1866
5.2157
5.2026
5.2181
5.1719
5.1926
5.2017
5.1960
5.1883
5.2238
5.1835
5.1925
5.2147
5.1601
5.2178
5.2288
5.2248
5.2003
5.1893
5.2102
5.1863
5.1833
5.2096
5.1834
5.2146
5.2107
5.1990
5.2346
5.1686
5.1656
5.1884
5.2069
5.2284
5.1896
5.2333
5.2278
5.1880
5.2158
5.2037
5.1833
5.2326
5.1996
5.1996
5.2275
5.2046
5.1880
5.2187
5.1794
5.1886
5.2087
5.2345
5.2094
5.2142
5.1815
5.2012
5.2045
5.2329
5.2060
5.1820
5.2039
5.1983
5.2448
5.1973
5.1881
5.2101
5.2108
5.2093
5.1767
5.1736
5.2037
5.2109
5.1894
5.1976
5.1985
5.2097
5.1958
5.1948
5.1892
5.2277
5.2302
5.1933
5.2261
5.2002
5.2228
5.1985
5.2065
5.1658
5.1988
5.1847
5.2114
5.1993
5.2212
5.1941
5.1779
5.2197
5.2089
5.1978
5.2000
5.1703
5.1745
5.1572
5.2111
5.1714
5.2199
5.2083
5.2168
5.2074
5.2206
5.2209
5.1961
5.2178
5.1815
5.1959
5.2002
5.2369
5.1956
5.1880
5.2081
5.2373
5.1961
5.1875
5.1848
5.1807
5.1641
5.1718
5.1821
5.1717
5.2009
5.1603
5.1832
5.1537
5.1721
5.1934
5.1975
5.1947
5.2207
5.2081
5.2013
5.1480
5.1880
5.2043
5.2128
5.1999
5.2171
5.2117
5.1931
5.2054
5.2417
5.1876
5.1913
5.2121
5.1999
5.2164
5.1887
5.2367
5.1837
5.2206
5.2240
5.1884
5.1818
5.1611
5.1737
5.1361
5.1911
5.1761
5.1795
5.2129
5.1639
5.2005
5.1843
5.1879
5.1978
5.2389
5.1954
5.1977
5.1669
5.1850
5.2021
5.2455
5.1971
5.2016
5.2012
5.2022
5.1721
5.2095
5.1793
5.1870
5.1901
5.1988
5.1790
5.2158
5.1555
5.1805
5.1960
5.1667
5.2149
5.2162
5.1620
5.2501
5.2183
5.2147
5.1951
5.2047
5.2188
5.2309
5.2198
5.1964
5.1965
5.2017
5.2012
5.1826
5.2096
5.1900
5.2124
5.1744
5.1787
5.1997
5.2142
5.1950
5.1848
5.1998
5.1970
5.1689
5.2074
5.1898
5.1953
5.2332
5.1913
5.1870
5.1955
5.1715
5.2006
5.2085
5.1894
5.1847
5.1918
5.1655
5.2149
5.1804
5.1877
5.1974
5.1651
5.2119
5.2310
5.1760
5.1984
5.1770
5.1590
5.1855
5.1995
5.2074
5.1803
5.1543
5.2234
5.1813
5.1477
5.1999
5.2058
5.1996
5.2044
5.1911
5.1828
5.1809
5.2153
5.2016
5.2182
5.1821
5.2190
5.1723
5.1926
5.1749
5.2045
5.1843
5.1795
5.1673
5.2063
5.1618
5.2066
5.2114
5.2228
5.1759
5.1698
5.1633
5.1485
5.1669
5.1773
5.1776
5.2238
5.2047
5.1505
5.2017
5.1344
5.1934
5.1867
5.2055
5.2008
5.1819
5.1729
5.1985
5.1857
5.1880
5.1628
5.1697
5.1677
5.2091
5.1621
5.1766
5.2080
5.1969
5.2025
5.1914
5.1673
5.1965
5.1866
5.2195
5.1619
5.2147
5.2105
5.2196
5.1947
5.1713
5.1653
5.1930
5.1708
5.1788
5.1891
5.1765
5.1825
5.1683
5.1944
5.1894
5.2119
5.2002
5.1814
5.2157
5.1721
5.1661
5.1901
5.2242
5.2164
5.2093
5.1835
5.1897
5.1541
5.1752
5.1709
5.1752
5.1891
5.2055
5.1450
5.1560
5.1715
5.2023
5.2184
5.1780
5.1756
5.1985
5.1949
5.1835
5.2387
5.1898
5.1729
5.1613
5.1724
5.1996
5.1878
5.1740
5.1790
5.1861
5.1548
5.2168
5.2071
5.1986
5.1996
5.2099
5.2069
5.2042
5.1868
5.1819
5.1752
5.1661
5.2075
5.1729
5.1715
5.2105
5.2006
5.1930
5.1872
5.1555
5.1971
5.1799
5.1832
5.1617
5.2039
5.1815
5.2009
5.1715
5.1947
5.1748
5.1692
5.1812
5.1942
5.1762
5.1830
5.1897
5.1854
5.1976
5.1721
5.1814
5.1705
5.1977
5.1692
5.1902
5.1588
5.2137
5.1962
5.1808
5.1874
5.1997
5.2339
5.1379
5.1838
5.2067
5.1641
5.1931
5.1816
5.1638
5.1589
5.1335
5.1794
5.1701
5.1562
5.1843
5.1701
5.1717
5.1966
5.1577
5.1466
5.1919
5.1856
5.1872
5.1501
5.1746
5.1628
5.1974
5.1859
5.1639
5.1381
5.1934
5.1756
5.1714
5.1810
5.1563
5.2279
5.1929
5.1934
5.1557
5.1657
5.2070
5.1676
5.1621
5.1509
5.1679
5.1620
5.2014
5.2208
5.1700
5.1884
5.1816
5.1525
5.2011
5.1764
5.1557
5.2018
5.1944
5.1881
5.1997
5.1668
5.1504
5.1860
5.1912
5.1548
5.1667
5.1626
5.1394
5.1644
5.1746
5.1868
5.1855
5.1680
5.1509
5.1346
5.1472
5.1529
5.1393
5.1659
5.1865
5.1773
5.1623
5.1831
5.1944
5.2124
5.1690
5.1751
5.2212
5.1800
5.1923
5.1569
5.1774
5.1620
5.1864
5.2054
5.1567
5.1676
5.1841
5.1743
5.1734
5.1582
5.1864
5.1523
5.1526
5.1576
5.1708
5.1839
5.2228
5.1561
5.1621
5.1577
5.1564
5.2001
5.1280
5.1774
5.1432
5.1487
5.2032
5.1391
5.1714
5.1635
5.1775
5.2090
5.1979
5.1570
5.1598
5.1728
5.1988
5.1818
5.1684
5.1818
5.1913
5.1572
5.1768
5.1757
5.1861
5.1770
5.1471
5.1715
5.1470
5.2065
5.1216
5.1566
5.1739
5.1364
5.1901
5.1765
5.1525
5.1786
5.1806
5.1843
5.1622
5.1902
5.1878
5.1653
5.2087
5.2028
5.1747
5.1682
5.1401
5.1635
5.1777
5.2022
5.1616
5.2028
5.2072
5.1848
5.1923
5.1687
5.1867
5.1451
5.1714
5.1840
5.1792
5.1831
5.1434
5.1879
5.1566
5.2013
5.1794
5.1910
5.1411
5.1658
5.1587
5.1589
5.1837
5.1567
5.1573
5.1808
5.1640
5.1385
5.1933
5.1554
5.1401
5.1414
5.1743
5.1161
5.1525
5.1475
5.1867
5.1966
5.1874
5.1778
5.1804
5.1830
5.1120
5.1470
5.1762
5.1594
5.1202
5.1341
5.1585
5.1645
5.1783
5.1747
5.1567
5.1492
5.1617
5.1579
5.1805
5.1703
5.1612
5.1497
5.1759
5.1624
5.1693
5.1694
5.1716
5.1663
5.1667
5.1513
5.1522
5.1931
5.1722
5.1626
5.1508
5.1599
5.1818
5.1812
5.1415
5.1171
5.1643
5.1454
5.1330
5.1458
5.1913
5.1509
5.1806
5.1902
5.1979
5.1289
5.1959
5.1485
5.1481
5.1551
5.1598
5.1532
5.1525
5.1276
5.1478
5.1625
5.1761
5.1618
5.1641
5.1457
5.1737
5.1733
5.1274
5.1672
5.1580
5.2013
5.1480
5.1765
5.1412
5.1950
5.1622
5.1348
5.1627
5.1440
5.1499
5.1318
5.1671
5.1322
5.2027
5.1706
5.1728
5.1507
5.1910
5.1535
5.1467
5.1537
5.1760
5.2062
5.1808
5.1841
5.1821
5.1231
5.1867
5.1711
5.1562
5.1633
5.1690
5.1566
5.1662
5.1414
5.1427
5.1774
5.1413
5.1622
5.1877
5.1442
5.1529
5.1259
5.1695
5.1915
5.1511
5.1118
5.1535
5.1503
5.1552
5.1674
5.1366
5.1521
5.1370
5.1282
5.1555
5.1757
5.1614
5.1325
5.1734
5.1834
5.1935
5.1664
5.1746
5.1734
5.1684
5.1791
5.1396
5.1636
5.1700
5.1598
5.1825
5.1694
5.1598
5.1446
5.1785
5.1646
5.1518
5.1951
5.1919
5.1403
5.1371
5.1598
5.1352
5.1624
5.1784
5.1619
5.1421
5.1784
5.1828
5.1536
5.1458
5.1415
5.1502
5.1437
5.1666
5.1549
5.1555
5.1408
5.1494
5.1642
5.1708
5.1467
5.1401
5.1570
5.1675
5.1111
5.1244
5.1597
5.1609
5.1408
5.1442
5.1814
5.1678
5.1318
5.1471
5.1378
5.1626
5.1324
5.1220
5.1731
5.1845
5.1445
5.1542
5.1740
5.1345
5.1274
5.1851
5.1376
5.1440
5.1194
5.1739
5.1460
5.1639
5.1848
5.1260
5.1742
5.1776
5.1200
5.1249
5.1565
5.1438
5.1165
5.1820
5.1592
5.1454
5.1779
5.1492
5.1448
5.1513
5.1456
5.1838
5.1613
5.1660
5.1588
5.1586
5.1813
5.1316
5.2020
5.1533
5.1415
5.1504
5.1276
5.1591
5.1706
5.1378
5.1567
5.2011
5.1214
5.1564
5.1668
5.1266
5.1523
5.1345
5.1332
5.1379
5.1576
5.1371
5.1369
5.1549
5.1670
5.1258
5.1301
5.1482
5.1609
5.1661
5.1348
5.1439
5.1633
5.1273
5.1276
5.1334
5.1592
5.1204
5.1891
5.1538
5.1558
5.1180
5.1582
5.1485
5.1373
5.1677
5.1683
5.1449
5.1964
5.1562
5.1320
5.1583
5.1447
5.1408
5.1536
5.1458
5.1433
5.1441
5.1438
5.1491
5.1523
5.1394
5.1198
5.1609
5.0915
5.1634
5.1334
5.1339
5.1746
5.1393
5.1272
5.1577
5.1153
5.1536
5.1215
5.1475
5.1640
5.1941
5.1625
5.1720
5.1774
5.1236
5.1626
5.1423
5.1461
5.1508
5.1771
5.1745
5.1789
5.1454
5.1646
5.1078
5.1681
5.1700
5.1248
5.1246
5.1503
5.1171
5.1873
5.1601
5.1702
5.1578
5.1187
5.1568
5.1797
5.1307
5.1034
5.1184
5.1579
5.1372
5.1403
5.1235
5.1525
5.1549
5.1581
5.1638
5.1137
5.1747
5.1498
5.1265
5.1391
5.1221
5.1530
5.1915
5.1213
5.1630
5.1360
5.1575
5.1494
5.1419
5.1367
5.1626
5.1141
5.1509
5.1628
5.1365
5.1445
5.1136
5.1587
5.1399
5.1176
5.0994
5.1402
5.1572
5.1994
5.1443
5.1305
5.1488
5.1452
5.1411
5.1443
5.1378
5.1318
5.1284
5.0951
5.1642
5.1262
5.1573
5.1624
5.1364
5.1251
5.1377
5.1541
5.1635
5.1400
5.1583
5.1723
5.1218
5.1541
5.1741
5.1420
5.1369
5.1595
5.1432
5.1817
5.1238
5.1424
5.1673
5.1646
5.1401
5.1626
5.1310
5.1193
5.1604
5.1319
5.1724
5.1018
5.1595
5.1393
5.1415
5.1547
5.1249
5.1370
5.1248
5.1305
5.1462
5.1326
5.0762
5.1481
5.1252
5.1522
5.1064
5.1367
5.1382
5.1266
5.1398
5.1521
5.1134
5.1273
5.1604
5.1306
5.1562
5.1355
5.1472
5.1312
5.1495
5.1356
5.1206
5.1262
5.1191
5.1201
5.1617
5.1630
5.1036
5.1331
5.1118
5.1306
5.1282
5.1229
5.1148
5.1374
5.1352
5.1495
5.1289
5.1493
5.1140
5.1394
5.1593
5.1598
5.1390
5.1281
5.0947
5.1628
5.1208
5.1509
5.1270
5.1328
5.1411
5.1187
5.1433
5.0992
5.1048
5.1268
5.1372
5.1325
5.1656
5.1345
5.1182
5.1426
5.1195
5.0919
5.1158
5.2119
5.1357
5.1302
5.1136
5.1381
5.1512
5.1233
5.1523
5.1732
5.1146
5.1487
5.1384
5.1374
5.1046
5.0890
5.1414
5.1486
5.1072
5.1244
5.1302
5.1478
5.1371
5.1247
5.1331
5.1616
5.1182
5.1192
5.1023
5.1723
5.1406
5.1219
5.1082
5.1263
5.1632
5.0851
5.1481
5.1442
5.1414
5.1101
5.1490
5.1261
5.1478
5.1681
5.1431
5.1063
5.1157
5.1068
5.1630
5.1118
5.1365
5.1506
5.1250
5.1647
5.1952
5.1616
5.1124
5.1445
5.1395
5.1323
5.1651
5.1113
5.1345
5.1391
5.1566
5.1437
5.1113
5.1212
5.1541
5.1246
5.1588
5.1566
5.1285
5.1329
5.1020
5.1174
5.1583
5.1191
5.1545
5.1410
5.1227
5.0980
5.1318
5.1304
5.1453
5.1647
5.1670
5.1699
5.1760
5.0769
5.1583
5.1367
5.1422
5.0892
5.0899
5.1532
5.1425
5.1636
5.1548
5.1508
5.1148
5.1024
5.1262
5.1220
5.1140
5.1264
5.1017
5.1169
5.1066
5.0761
5.1338
5.1454
5.1316
5.1230
5.1254
5.1349
5.1543
5.0943
5.1712
5.1148
5.1308
5.1672
5.1703
5.1111
5.1136
5.1591
5.1727
5.1523
5.1712
5.1442
5.1350
5.1398
5.1721
5.1511
5.1249
5.1208
5.1273
5.1494
5.1488
5.1156
5.1320
5.1173
5.1043
5.1486
5.0987
5.1372
5.1397
5.1041
5.0819
5.1124
5.1524
5.1244
5.1347
5.1375
5.1074
5.1418
5.1241
5.1420
5.1331
5.1282
5.1405
5.1491
5.1101
5.1283
5.1369
5.1379
5.1240
5.1134
5.1542
5.1319
5.1497
5.0850
5.1282
5.1290
5.1244
5.1379
5.1624
5.0900
5.1146
5.1112
5.1166
5.1202
5.1168
5.1582
5.1457
5.1406
5.0895
5.1019
5.1339
5.0943
5.1351
5.1120
5.1592
5.1269
5.0820
5.1088
5.1461
5.1554
5.1078
5.1396
5.1275
5.0764
5.1001
5.1234
5.1614
5.0930
5.1639
5.1438
5.1640
5.1682
5.1294
5.1396
5.1275
5.0838
5.1074
5.1446
5.1304
5.1380
5.1409
5.1463
5.1372
5.1208
5.1641
5.1616
5.1534
5.0922
5.1475
5.1203
5.1168
5.1515
5.1058
5.1402
5.1469
5.1314
5.1345
5.0963
5.1856
5.1028
5.1422
5.1308
5.1239
5.1229
5.1283
5.1424
5.1381
5.1438
5.1553
5.1483
5.1440
5.1398
5.1113
5.0946
5.1093
5.1243
5.1117
5.1720
5.1654
5.1235
5.1168
5.1063
5.1293
5.1083
5.0956
5.1093
5.1224
5.1026
5.1393
5.1053
5.1337
5.0925
5.1477
5.1337
5.1163
5.0882
5.1300
5.1243
5.1059
5.1170
5.1208
5.1295
5.1039
5.1200
5.1252
5.1694
5.1247
5.1132
5.1408
5.1173
5.1094
5.1393
5.1308
5.1294
5.1063
5.1457
5.1416
5.1376
5.1511
5.1388
5.1499
5.1422
5.1375
5.1435
5.1266
5.1187
5.1382
5.0989
5.0955
5.1259
5.1279
5.1392
5.1321
5.1423
5.0977
5.1242
5.1161
5.1361
5.1114
5.1118
5.1150
5.0914
5.1708
5.1071
5.1426
5.1127
5.1215
5.1302
5.0932
5.1220
5.1049
5.0911
5.0862
5.1366
5.1400
5.1324
5.1272
5.1426
5.1009
5.1011
5.1289
5.1398
5.1448
5.1429
5.1395
5.1185
5.1259
5.1160
5.1113
5.1593
5.1327
5.0989
5.1287
5.1173
5.0806
5.1320
5.1192
5.1516
5.0751
5.1631
5.1360
5.1123
5.1126
5.1038
5.1302
5.1075
5.1206
5.0882
5.1137
5.1440
5.1414
5.0949
5.1174
5.0781
5.1263
5.0912
5.1360
5.1366
5.1193
5.1372
5.1198
5.0787
5.1554
5.1383
5.1493
5.1136
5.1348
5.1127
5.1110
5.1094
5.1191
5.0901
5.1359
5.0925
5.0951
5.1071
5.1178
5.1204
5.1144
5.1316
5.0931
5.1010
5.0959
5.1282
5.1523
5.1198
5.1567
5.1220
5.1521
5.1067
5.1239
5.1480
5.1497
5.1237
5.1288
5.0927
5.1718
5.0742
5.1443
5.0974
5.1555
5.1477
5.0932
5.1049
5.1225
5.1319
5.1545
5.1246
5.1005
5.1104
5.1035
5.1436
5.1310
5.1235
5.1063
5.0949
5.1098
5.1177
5.1152
5.1407
5.1378
5.1534
5.1548
5.1311
5.1314
5.1100
5.1252
5.0910
5.1261
5.1347
5.1290
5.1738
5.1355
5.1100
5.1106
5.1198
5.1120
5.0914
5.0900
5.1307
5.0683
5.1090
5.0982
5.0868
5.1142
5.1331
5.1344
5.1132
5.1313
5.1129
5.1556
5.1174
5.1158
5.1386
5.1239
5.1353
5.1414
5.1405
5.0872
5.1581
5.1337
5.1507
5.0897
5.0996
5.1484
5.1494
5.0944
5.1273
5.1072
5.1138
5.1402
5.1068
5.0675
5.0988
5.1101
5.0728
5.1395
5.0967
5.1180
5.1273
5.1094
5.1280
5.0959
5.0909
5.0900
5.1139
5.0752
5.1450
5.1064
5.1284
5.0883
5.1432
5.1007
5.1381
5.1232
5.0906
5.1370
5.1066
5.1102
5.1057
5.1143
5.0962
5.1373
5.1351
5.0823
5.0966
5.0903
5.1387
5.0835
5.1136
5.0952
5.1270
5.0995
5.1036
5.0874
5.1253
5.1400
5.0898
5.1137
5.1325
5.1252
5.0864
5.1225
5.0991
5.1068
5.1052
5.1061
5.1152
5.0970
5.1000
5.0683
5.1073
5.1270
5.1082
5.1115
5.1210
5.1341
5.1121
5.1173
5.1243
5.1289
5.1366
5.1168
5.1255
5.1091
5.1044
5.1138
5.1241
5.1325
5.1414
5.0961
5.1193
5.1476
5.0921
5.0874
5.1002
5.1085
5.1235
5.0933
5.1129
5.1157
5.1035
5.1018
5.1200
5.1260
5.1144
5.1003
5.1240
5.1247
5.1598
5.1339
5.0888
5.0845
5.0980
5.1549
5.0829
5.1165
5.0884
5.1405
5.1311
5.1481
5.1145
5.1368
5.1154
5.1195
5.1226
5.1304
5.1204
5.1296
5.1268
5.0988
5.1027
5.1125
5.1311
5.0951
5.1264
5.1462
5.0894
5.0868
5.1238
5.1253
5.0940
5.1208
5.0982
5.0787
5.1382
5.1055
5.1210
5.1130
5.1122
5.0940
5.0932
5.1238
5.0854
5.1147
5.1039
5.1225
5.1004
5.1233
5.0712
5.1250
5.1057
5.0886
5.0893
5.0656
5.0965
5.0916
5.1050
5.1022
5.0977
5.1309
5.1288
5.1104
5.1111
5.1066
5.1264
5.0889
5.1149
5.0968
5.1537
5.0818
5.0808
5.1197
5.1383
5.1353
5.0829
5.0806
5.1299
5.1067
5.1203
5.1281
5.1145
5.1206
5.1001
5.1025
5.0937
5.0735
5.1212
5.0862
5.1011
5.0930
5.1227
5.1012
5.1053
5.1227
5.1265
5.0722
5.1298
5.1068
5.0938
5.1143
5.1205
5.1138
5.0768
5.0940
5.1133
5.1101
5.1376
5.0761
5.1090
5.0605
5.0923
5.0992
5.1445
5.0694
5.1223
5.1039
5.0921
5.1040
5.1093
5.0989
5.0717
5.0544
5.0839
5.1260
5.0671
5.1103
5.1068
5.0974
5.0991
5.1043
5.1067
5.0972
5.1298
5.1185
5.1068
5.0946
5.0853
5.1228
5.1196
5.1369
5.0960
5.1154
5.1063
5.1080
5.1260
5.1194
5.0994
5.1094
5.0761
5.1369
5.1054
5.1275
5.1078
5.1107
5.1064
5.0825
5.0953
5.0869
5.1207
5.1059
5.1021
5.1053
5.0879
5.1014
5.1209
5.1048
5.0919
5.1207
5.1451
5.1208
5.1198
5.1253
5.0990
5.1002
5.1005
5.1113
5.0829
5.0759
5.1268
5.1209
5.1253
5.1442
5.0739
5.1033
5.1349
5.0779
5.1063
5.1067
5.0936
5.1150
5.0881
5.1076
5.0698
5.1167
5.0756
5.1092
5.0964
5.1227
5.0625
5.0786
5.0959
5.0630
5.0772
5.1222
5.0883
5.0943
5.1034
5.0673
5.1267
5.1229
5.1100
5.1123
5.0740
5.1170
5.0951
5.1018
5.1070
5.1358
5.1273
5.1076
5.1408
5.1481
5.1297
5.1092
5.0683
5.1085
5.0775
5.1105
5.1256
5.0872
5.1281
5.0857
5.1054
5.1394
5.1430
5.1133
5.1003
5.1249
5.1238
5.1125
5.0976
5.0948
5.0820
5.0631
5.1064
5.0687
5.1106
5.1162
5.1032
5.1020
5.0872
5.1055
5.0827
5.1556
5.0761
5.1139
5.0726
5.1010
5.0819
5.1010
5.0713
5.1329
5.1296
5.0922
5.0829
5.0659
5.1018
5.1134
5.1339
5.0980
5.1241
5.0790
5.0889
5.0586
5.1059
5.1130
5.1000
5.1023
5.1283
5.0932
5.1015
5.0743
5.1235
5.0892
5.1331
5.0979
5.0868
5.0829
5.0690
5.1114
5.0904
5.1394
5.1158
5.0739
5.1234
5.0757
5.1154
5.1295
5.1229
5.1115
5.1204
5.1060
5.1044
5.0809
5.0770
5.0833
5.0940
5.0752
5.1061
5.0933
5.0874
5.0700
5.0615
5.1181
5.1258
5.1145
5.1214
5.0936
5.0732
5.0780
5.1443
5.0805
5.1153
5.1236
5.1020
5.1161
5.0864
5.0875
5.0986
5.1166
5.0814
5.0841
5.0695
5.1117
5.1139
5.1025
5.1378
5.1012
5.0840
5.0813
5.1140
5.0621
5.0861
5.0773
5.0943
5.0832
5.0627
5.1048
5.1279
5.0808
5.1072
5.0863
5.0909
5.1183
5.0727
5.1059
5.1402
5.0891
5.0877
5.0704
5.0838
5.1036
5.0984
5.1075
5.1045
5.0785
5.0715
5.1029
5.0638
5.0969
5.1031
5.0771
5.1078
5.1144
5.1019
5.0906
5.0807
5.1274
5.0909
5.0919
5.0738
5.0856
5.1294
5.1145
5.0744
5.1096
5.0726
5.1116
5.1380
5.1064
5.0945
5.0968
5.0874
5.1165
5.0901
5.1436
5.0912
5.0785
5.0802
5.1284
5.0667
5.1275
5.0939
5.0851
5.0633
5.1391
5.0674
5.0949
5.1259
5.0477
5.0992
5.0861
5.0850
5.1049
5.1211
5.0891
5.0727
5.1026
5.1213
5.0882
5.1305
5.0817
5.0574
5.1232
5.0842
5.0564
5.1060
5.0853
5.0926
5.0705
5.0873
5.0884
5.0729
5.1137
5.1169
5.1207
5.0739
5.0519
5.0886
5.0746
5.0983
5.0900
5.1252
5.0852
5.0597
5.0989
5.1114
5.1232
5.1000
5.0744
5.0865
5.0732
5.1089
5.0724
5.0901
5.0782
5.0644
5.0946
5.1300
5.1204
5.0895
5.0819
5.0964
5.1241
5.0841
5.1195
5.1139
5.0571
5.0781
5.0864
5.0798
5.0943
5.0634
5.1216
5.0921
5.1118
5.1087
5.0893
5.0762
5.0910
5.0760
5.1074
5.1140
5.0812
5.1130
5.0873
5.0926
5.0954
5.1032
5.1063
5.0824
5.1232
5.1206
5.0814
5.1057
5.0859
5.1417
5.1147
5.0735
5.1040
5.1081
5.1321
5.0625
5.1152
5.1080
5.0595
5.0998
5.0800
5.0927
5.0818
5.1133
5.0896
5.0663
5.0505
5.1046
5.1299
5.1054
5.1087
5.0744
5.0740
5.1287
5.0939
5.0704
5.0692
5.0942
5.1200
5.1178
5.0748
5.0748
5.1197
5.0901
5.0962
5.0993
5.0924
5.0926
5.1326
5.0761
5.1035
5.0891
5.0710
5.0834
5.0609
5.0768
5.1066
5.0839
5.0902
5.0874
5.0525
5.0621
5.0745
5.1015
5.1363
5.0788
5.1058
5.0612
5.0544
5.0639
5.0487
5.1169
5.1107
5.0938
5.1089
5.0818
5.1053
5.0968
5.0730
5.0986
5.0977
5.0665
5.1152
5.1213
5.0870
5.0686
5.0603
5.1011
5.0669
5.0893
5.0501
5.0791
5.0836
5.0640
5.0774
5.0893
5.0607
5.0731
5.0764
5.1121
5.0891
5.0701
5.1211
5.1032
5.1056
5.0711
5.0644
5.0967
5.0612
5.1046
5.0892
5.0865
5.1261
5.0744
5.1062
5.0503
5.0894
5.0733
5.0646
5.0713
5.0771
5.1205
5.0766
5.0757
5.0771
5.0462
5.1011
5.0430
5.0979
5.0673
5.0686
5.0733
5.0932
5.0852
5.1048
5.1149
5.0779
5.1239
5.0987
5.0838
5.0637
5.0961
5.0894
5.1110
5.0942
5.1242
5.0981
5.0682
5.0581
5.0720
5.0640
5.0626
5.0675
5.1013
5.0856
5.0789
5.0753
5.1102
5.0897
5.0936
5.0873
5.0683
5.1022
5.0624
5.1026
5.1123
5.0847
5.0621
5.0820
5.0898
5.1095
5.0701
5.0758
5.1046
5.1088
5.0922
5.0826
5.0935
5.0516
5.0948
5.0834
5.0789
5.0781
5.0939
5.1127
5.1189
5.0729
5.0979
5.1015
5.0845
5.1034
5.0656
5.1119
5.0836
5.0528
5.0916
5.0899
5.0940
5.0716
5.1044
5.0957
5.0450
5.0980
5.0682
5.0861
5.0921
5.0573
5.0979
5.0734
5.1259
5.0750
5.0865
5.0818
5.0794
5.0985
5.0645
5.1010
5.0613
5.0644
5.0539
5.0654
5.0805
5.0894
5.1059
5.1189
5.1012
5.0410
5.0705
5.0544
5.0728
5.1089
5.0656
5.0684
5.0855
5.0644
5.0844
5.0788
5.0739
5.0794
5.0682
5.0901
5.0950
5.0915
5.0939
5.0454
5.1041
5.0552
5.0805
5.1118
5.0882
5.0791
5.0506
5.1053
5.0681
5.0553
5.0751
5.0782
5.0633
5.0865
5.0505
5.0576
5.0697
5.0738
5.1013
5.0710
5.1143
5.0910
5.0813
5.0843
5.0951
5.0600
5.0594
5.1025
5.0629
5.0715
5.0817
5.0791
5.0864
5.0512
5.0538
5.0399
5.0637
5.0579
5.0721
5.0971
5.0715
5.1042
5.0758
5.0777
5.0502
5.0581
5.0709
5.0334
5.0742
5.0721
5.0785
5.0696
5.0404
5.0809
5.0978
5.0788
5.0865
5.0807
5.1133
5.0927
5.0889
5.0923
5.0774
5.0867
5.0560
5.0731
5.0641
5.0419
5.0723
5.0620
5.0703
5.0491
5.0562
5.0773
5.0538
5.1048
5.0857
5.0639
5.0909
5.0987
5.0775
5.1169
5.1253
5.0507
5.1248
5.0945
5.1072
5.0410
5.0953
5.0660
5.0526
5.0918
5.0750
5.0773
5.0705
5.0796
5.0766
5.1148
5.1009
5.0739
5.0715
5.0833
5.0655
5.0687
5.0842
5.0996
5.0962
5.0881
5.0623
5.0748
5.0960
5.0497
5.0326
5.0224
5.0758
5.1146
5.0943
5.0740
5.0622
5.0846
5.1011
5.0462
5.1038
5.0756
5.0534
5.0981
5.0903
5.0440
5.0884
5.0843
5.0845
5.0619
5.0670
5.0849
5.0585
5.0779
5.0910
5.0753
5.0726
5.0743
5.0784
5.0752
5.1124
5.0786
5.0823
5.0748
5.0345
5.0838
5.0708
5.0755
5.0903
5.0900
5.0784
5.0832
5.0641
5.1083
5.0613
5.0620
5.0420
5.0269
5.0696
5.0376
5.0866
5.0636
5.0576
5.0913
5.0530
5.0792
5.0633
5.0873
5.1043
5.0776
5.0502
5.0582
5.1143
5.0902
5.0853
5.0866
5.0958
5.0631
5.0591
5.0631
5.0835
5.0861
5.0247
5.0924
5.0350
5.0600
5.1001
5.0765
5.0491
5.0785
5.0835
5.0301
5.0639
5.0722
5.0507
5.0435
5.0582
5.0693
5.0702
5.0571
5.0776
5.0706
5.0765
5.0635
5.0634
5.0725
5.1107
5.0453
5.0986
5.1086
5.0495
5.0562
5.0772
5.0976
5.0365
5.0618
5.0559
5.0707
5.0758
5.0531
5.0719
5.0753
5.0998
5.0485
5.0535
5.0507
5.0682
5.1080
5.0646
5.0995
5.0639
5.0541
5.0663
5.0335
5.0619
5.0810
5.0638
5.0885
5.1215
5.0692
5.1043
5.0670
5.1009
5.0333
5.0764
5.0687
5.0993
5.0512
5.0540
5.0868
5.0970
5.0597
5.0519
5.0751
5.0609
5.0948
5.0964
5.0478
5.1044
5.0595
5.0401
5.0739
5.0398
5.0545
5.0764
5.0616
5.0617
5.0660
5.0704
5.0850
5.0401
5.0680
5.0612
5.0649
5.0422
5.0678
5.0784
5.0778
5.1212
5.0474
5.0505
5.0518
5.0676
5.0715
5.0511
5.0534
5.1187
5.1124
5.0964
5.0521
5.0621
5.0617
5.0818
5.0598
5.0655
5.0455
5.0932
5.0508
5.1006
5.0507
5.0752
5.0584
5.0887
5.0607
5.0747
5.0792
5.1161
5.0552
5.0619
5.0750
5.0235
5.0615
5.0774
5.0573
5.0655
5.0239
5.0891
5.0842
5.0824
5.1084
5.0382
5.1034
5.0719
5.0782
5.0672
5.0320
5.0711
5.0558
5.0840
5.0525
5.0671
5.0932
5.0633
5.0788
5.0414
5.0718
5.0907
5.0988
5.0633
5.0766
5.0794
5.0525
5.0878
5.0987
5.0471
5.0657
5.1036
5.0616
5.1114
5.0714
5.0935
5.0696
5.0643
5.0846
5.0408
5.0809
5.0529
5.0711
5.0468
5.0740
5.0879
5.0576
5.0473
5.0679
5.0762
5.1313
5.0787
5.0585
5.0790
5.0986
5.0822
5.0596
5.0854
5.0628
5.0310
5.0857
5.0558
5.0811
5.0779
5.0755
5.0700
5.0172
5.0542
5.0550
5.0562
5.0984
5.0470
5.0338
5.0519
5.0735
5.0604
5.0459
5.0752
5.0778
5.0874
5.0421
5.1012
5.0859
5.0754
5.0375
5.0849
5.0499
5.0749
5.0314
5.0518
5.0991
5.0884
5.0838
5.0526
5.0802
5.0759
5.0711
5.0779
5.0553
5.0608
5.0542
5.0562
5.0998
5.0833
5.0824
5.0738
5.0708
5.0544
5.0915
5.0388
5.0703
5.0878
5.0526
5.0528
5.0815
5.0341
5.0364
5.1237
5.0448
5.0598
5.0989
5.0606
5.0858
5.0696
5.0923
5.0750
5.0807
5.0356
5.0587
5.0845
5.0800
5.1083
5.0211
5.0951
5.0953
5.0367
5.0197
5.0356
5.0259
5.0711
5.0600
5.0844
5.0743
5.0862
5.0897
5.0601
5.0858
5.0522
5.0495
5.0576
5.0677
5.1153
5.0599
5.0335
5.0951
5.0618
5.0814
5.0804
5.0714
5.0601
5.0672
5.0231
5.0672
5.0638
5.0707
5.0705
5.0695
5.0809
5.0807
5.0720
5.0422
5.0242
5.0492
5.0564
5.0579
5.0759
5.0517
5.0384
5.0202
5.0812
5.0677
5.0470
5.0649
5.0487
5.0383
5.0353
5.0700
5.0554
5.0990
5.0662
5.0595
5.1133
5.0546
5.0764
5.0735
5.0447
5.0560
5.0302
5.1041
5.0963
5.0549
5.0379
5.0632
5.0818
5.0494
5.0476
5.0573
5.1124
5.0565
5.0489
5.0343
5.0639
5.0828
5.0721
5.0487
5.0593
5.0971
5.0622
5.0647
5.0235
5.0915
5.0412
5.0833
5.0601
5.0307
5.0808
5.0415
5.0822
5.0711
5.0640
5.0473
5.0395
5.0617
5.0931
5.0743
5.0714
5.0828
5.0447
5.0450
5.0700
5.0585
5.0905
5.0497
5.0577
5.0806
5.0541
5.0394
5.0278
5.0199
5.0730
5.0225
5.0644
5.0958
5.0396
5.0866
5.0328
5.0681
5.0529
5.0558
5.0542
5.0211
5.0676
5.0799
5.0780
5.0668
5.0288
5.0497
5.0345
5.0637
5.0787
5.0799
5.0189
5.0640
5.0713
5.0901
5.0830
5.0456
5.0601
5.1100
5.0995
5.0539
5.0302
5.0338
5.1016
5.0766
5.0288
5.0980
5.0733
5.0424
5.0568
5.0320
5.0212
5.0174
5.0618
5.0677
5.0865
5.0711
5.0247
5.0363
5.1067
5.0596
5.0790
5.0680
5.0385
5.0137
5.0945
5.1020
5.0570
5.0807
5.0540
5.0540
5.0201
5.0798
5.0573
5.0836
5.0966
5.0651
5.0837
5.0727
5.0854
5.0884
4.9659
5.0859
5.0462
5.0789
5.0347
5.0810
5.0445
5.0571
5.0526
5.0423
5.0528
5.0476
5.0611
5.0231
5.0636
5.0605
5.0812
5.0700
5.0689
5.0338
5.0527
5.0513
5.0412
5.0472
5.0445
5.0389
5.0546
5.0516
5.0496
5.0847
5.0657
5.0665
5.0556
5.0711
5.0577
5.0461
5.0716
5.0669
5.0213
5.0925
5.0624
5.0424
5.0478
5.0588
5.0097
5.0564
5.0527
5.0759
5.0750
5.0647
5.0617
5.0460
5.0350
5.0344
5.0438
5.0793
5.0850
5.0710
5.0468
5.0519
5.0552
5.0718
5.0408
5.0677
5.0342
5.0450
4.9962
5.0882
5.0252
5.0724
5.0634
5.0841
5.0474
5.0608
5.0588
5.0982
5.0788
5.0459
5.0798
5.0335
5.0562
5.0863
5.0377
5.0385
5.0586
5.0516
5.0530
5.0561
5.0561
5.0584
5.0305
5.0968
5.0621
5.0636
5.0929
5.0600
5.1079
4.9983
5.0332
5.0671
5.0359
5.0675
5.0380
5.0286
5.0750
5.0758
5.0667
5.0224
5.0540
5.0405
5.0587
5.0571
5.0915
5.0735
5.0396
5.0829
5.0352
5.0550
5.0652
5.0751
5.0819
5.0438
5.0570
5.0909
5.0149
5.0787
5.0614
5.0523
5.0749
5.0632
5.0642
5.0380
5.0799
5.0243
5.0777
5.0559
5.0577
5.0662
5.0806
5.0444
5.0296
5.0610
5.0560
5.0777
5.0460
5.0387
5.0570
5.0651
5.0833
5.0493
5.0809
5.0801
5.0386
5.0177
5.0723
5.0615
5.0462
5.0640
5.0559
5.0656
5.0273
5.0524
5.0594
5.0078
5.0807
5.0739
5.0982
5.0634
5.0955
5.0374
5.0377
5.0463
5.0208
5.0295
5.0548
5.0636
5.0864
5.0408
5.0541
5.0633
5.0673
5.0497
5.0450
5.0423
5.0630
5.0450
5.0442
5.0477
5.0284
5.0832
5.0480
5.0674
5.0819
5.0814
5.0719
5.0466
5.0559
5.0618
5.0629
5.0750
5.0736
5.0818
5.0676
5.0087
5.0512
5.0422
5.0615
5.0454
5.0356
5.0357
5.0831
5.0437
5.0502
5.0184
5.0577
5.0763
5.0812
5.0526
5.0629
5.0344
5.0521
5.0653
5.0448
5.0583
5.0813
5.0757
5.0404
5.0259
5.0627
5.0575
5.0157
5.0537
5.0374
5.0614
5.0685
5.0383
5.0413
5.0268
5.0488
5.0281
5.0149
5.0339
5.0389
5.0392
5.0283
5.0581
5.0450
5.0538
5.0280
5.0060
5.0079
5.0624
5.0845
5.0548
5.0450
5.0918
5.0556
5.0710
5.0755
5.0464
5.0375
5.0215
5.0685
5.0685
5.0403
5.0572
5.0318
5.0132
5.0268
5.0809
5.0523
5.0427
5.0494
5.0514
5.0410
5.0346
5.0483
5.0398
5.0370
4.9992
5.0242
5.0589
5.0712
5.0852
5.0515
5.0507
5.0449
5.0690
5.0304
5.0511
5.0418
5.0091
5.0411
5.0645
5.0322
5.0346
5.0152
5.0644
5.0740
5.0476
5.0555
5.0430
5.0985
5.0722
5.0657
5.0463
5.0501
5.0521
5.0373
5.0549
5.0212
5.0461
5.0488
5.0173
5.0154
5.0670
5.0480
5.0431
5.0706
5.0383
5.0547
5.0473
5.0759
5.0680
5.0417
5.0658
5.0408
5.0559
5.0310
5.0626
5.0351
5.0177
5.0250
5.0311
5.0563
5.0756
5.0539
5.0679
5.0793
5.0600
5.0259
5.0473
5.0573
5.0729
5.0404
5.0747
5.0386
5.0573
5.0416
5.0392
5.0621
5.0651
5.0679
5.0394
5.0641
5.0587
5.0444
5.0518
5.0787
5.0476
5.0761
5.0652
5.0463
5.0170
5.0481
5.0345
5.0525
5.0675
5.0448
5.0808
5.0296
5.0471
5.0811
5.0294
5.0653
5.0303
5.0270
5.0432
5.0868
5.0345
5.0190
5.0329
5.0830
5.0253
5.0362
5.0671
4.9961
5.0521
5.0355
5.0409
5.0471
5.0691
5.0675
5.0476
5.0592
5.0410
5.0387
5.0394
5.0245
5.0570
5.0490
5.0638
5.0432
5.0209
5.0530
5.0265
5.0521
5.0421
5.0158
5.0528
5.0004
5.0744
5.0463
5.0511
5.0080
5.0567
5.0321
5.0450
5.0539
5.0154
5.0981
5.0317
5.0027
5.0335
5.0910
5.0420
5.0596
5.0507
5.0398
5.0538
5.0438
5.0615
5.0271
4.9951
5.0495
5.0664
5.0606
5.0816
5.0277
5.0587
5.0420
5.0532
5.0504
5.0160
5.0540
5.0620
5.0473
5.0345
5.0346
5.0523
5.0766
5.0338
5.0429
5.0463
5.0534
5.0488
5.0573
5.0556
5.0783
5.0233
5.0513
5.1030
5.0504
5.0744
5.0424
5.0009
5.0315
5.0689
5.0904
5.0241
5.0661
5.0340
5.0569
5.0406
5.0399
5.0819
5.0616
5.0524
5.0431
5.0340
5.0245
5.0370
5.0540
5.0543
5.0570
5.0101
5.0727
5.0652
5.0499
5.0211
5.0150
5.0401
5.0688
5.0603
5.0459
5.0623
5.0180
5.0363
5.0671
5.0456
5.0410
5.0301
5.0511
5.0721
5.0274
5.0461
5.0804
5.0185
5.0297
5.0497
5.0545
5.0339
5.0354
5.0470
5.0599
5.0636
5.0367
5.0239
5.0523
5.0257
5.0570
5.0463
5.0288
5.0291
5.0433
5.0590
5.0834
5.0270
5.0576
5.0126
4.9841
5.0460
5.0549
5.0128
5.0220
5.0245
5.0526
5.0081
5.0471
5.0571
5.0713
5.0491
5.0365
5.0620
5.0903
5.0718
5.0603
5.0397
5.0514
5.0407
5.0592
5.0539
5.0178
5.0566
5.0300
5.0795
5.0479
5.0267
5.0311
5.0678
5.0867
5.0414
5.0508
5.0381
5.0402
5.0565
5.0455
5.0384
5.0431
5.0433
5.0279
5.0224
5.0772
5.0439
5.0397
5.0113
5.0815
5.0177
5.0154
5.0517
5.0500
5.0609
5.0268
5.0113
5.0197
5.0379
5.0737
5.0517
5.0159
5.0613
5.0270
5.0385
5.0449
5.0086
5.0265
5.0689
5.0714
5.0218
5.0171
5.0321
5.0777
5.0588
5.0717
5.0488
5.0005
5.0633
5.0540
5.0367
5.0511
5.0308
5.0663
5.0597
5.0419
5.0335
5.0704
5.0534
5.0568
5.0198
5.0907
5.0466
5.0968
5.0334
5.0916
5.0369
5.0055
5.0440
5.0072
5.0367
5.0469
5.0350
5.0740
5.0134
5.0071
5.0425
5.0443
5.0339
5.0358
4.9730
5.0535
5.0255
5.0227
5.0401
5.0569
5.0182
5.0156
5.0478
5.0649
5.0888
5.0338
5.0223
5.0343
5.0098
5.0357
5.0592
5.0143
5.0584
5.0669
5.0326
5.0602
5.0467
5.0390
5.0716
5.0582
5.0469
5.0619
5.0419
5.0132
5.0551
5.0318
5.0422
5.0734
5.0499
5.0335
5.0303
5.0319
5.0247
5.0169
5.0516
5.0312
5.0208
5.0189
5.0751
5.0357
5.0493
5.0621
5.0213
5.0547
5.0455
5.0237
5.0630
5.0439
5.0373
5.0161
5.0613
4.9856
5.0429
5.0444
5.0273
5.0136
5.0250
5.0263
5.0251
5.0027
5.0353
5.0352
5.0254
5.0024
5.0436
5.0134
5.0150
5.0452
5.0526
5.0052
5.0055
5.0326
5.0303
5.0444
5.0343
5.0511
4.9888
5.0558
5.0358
5.0307
5.0504
5.0309
5.0435
5.0426
5.0503
5.0468
5.0597
5.0238
5.0363
5.0181
5.0441
5.0609
5.0854
5.0198
5.0500
5.0381
5.0204
5.0213
5.1092
5.0367
5.0608
5.0353
5.0233
5.0637
5.0296
5.0337
5.0006
5.0472
5.0013
5.0898
4.9861
5.0624
5.0448
5.0231
5.0335
5.0359
5.0227
5.0605
5.0360
5.0537
5.0317
5.0483
5.0389
5.0721
5.0799
5.0505
5.0564
5.0748
5.0099
5.0581
5.0342
5.0268
5.0330
5.0553
5.0082
5.0458
5.0377
5.0246
5.0239
5.0455
5.0184
5.0214
5.0072
5.0488
5.0720
5.0183
5.0526
5.0611
5.0345
5.0274
5.0731
5.0191
5.0486
5.0706
5.0863
5.0521
5.0712
5.0490
5.0175
5.0475
5.0449
5.0050
5.0803
5.0162
5.0121
5.0489
5.0405
5.0180
5.0346
5.0598
5.0449
5.0247
5.0072
5.0294
5.0244
4.9969
5.0283
5.0236
5.0311
4.9923
5.0208
5.0768
5.0374
5.0482
5.0054
5.0095
5.0139
5.0303
5.0304
5.0597
5.0621
5.0458
5.0260
5.0008
5.0476
5.0300
5.0480
5.0493
5.0448
5.0491
5.0440
5.0170
5.0484
5.0209
5.0181
5.0273
5.0536
5.0368
5.0460
5.0514
5.0667
5.0682
5.0048
5.0369
5.0249
5.0718
5.0047
5.0470
5.0332
5.0362
5.0390
5.0468
5.0708
5.0354
5.0194
5.0396
5.0328
5.0290
5.0154
5.0307
5.0582
5.0503
5.0260
5.0566
5.0347
5.0198
5.0087
5.0459
5.0263
5.0258
4.9970
5.0317
5.0844
5.0113
5.0542
5.0600
5.0163
5.0309
4.9864
5.0695
5.0349
5.0102
5.0414
5.0387
5.0163
5.0438
5.0339
5.0589
5.0473
5.0476
5.0173
5.0715
5.0269
5.0244
5.0113
5.0223
5.0122
5.0439
5.0141
4.9608
5.0372
5.0389
5.0540
5.0070
5.0452
5.0158
4.9894
5.0308
5.0309
5.0662
5.0248
5.0356
5.0286
5.0467
5.0475
5.0436
5.0568
5.0271
5.0369
5.0454
5.0229
5.0596
5.0200
5.0517
5.0003
5.0244
5.0407
5.0666
5.0514
5.0047
4.9707
5.0215
5.0441
5.0525
4.9691
5.0026
5.0453
5.0102
4.9926
5.0263
5.0282
5.0320
5.0189
5.0316
5.0645
5.0540
5.0453
5.0029
5.0477
5.0254
5.0242
5.0138
5.0113
5.0495
5.0132
5.0115
5.0033
5.0470
5.0058
5.0250
5.0474
5.0491
5.0064
5.0237
5.0332
5.0106
4.9948
4.9898
5.0782
5.0325
4.9689
5.0320
5.0430
5.0191
5.0764
5.0274
5.0414
5.0542
5.0155
5.0285
5.0420
5.0234
5.0086
5.0319
4.9859
5.0361
5.0607
5.0498
5.0112
5.0362
5.0488
5.0219
5.0226
5.0303
5.0033
4.9923
5.0556
5.0251
5.0368
5.0396
5.0121
5.0465
5.0420
5.0352
5.0301
4.9786
5.0504
5.0722
5.0431
5.0103
5.0272
5.0025
5.0210
5.0365
5.0196
5.0600
5.0787
5.0741
5.0155
5.0039
5.0251
5.0176
4.9943
5.0445
5.0378
5.0238
5.0544
5.0639
5.0326
5.0479
5.0592
5.0615
5.0549
5.0090
5.0599
5.0448
5.0339
5.0156
5.0175
5.0443
5.0127
5.0357
5.0345
5.0193
5.0500
5.0278
5.0427
5.0372
5.0025
5.0377
5.0403
4.9905
5.0254
5.0518
5.0083
5.0483
5.0362
5.0364
5.0231
5.0328
5.0045
5.0175
5.0298
5.0173
5.0489
5.0656
5.0095
5.0271
5.0341
5.0415
5.0132
5.0206
5.0279
5.0309
5.0119
5.0151
5.0165
5.0385
5.0049
5.0103
4.9929
5.0123
5.0122
5.0404
5.0326
5.0153
5.0184
5.0001
5.0373
5.0613
5.0550
5.0207
5.0117
5.0296
5.0328
5.0189
4.9671
4.9841
5.0337
5.0015
5.0032
5.0789
5.0511
5.0159
5.0666
4.9989
5.0191
5.0199
5.0382
5.0403
5.0292
5.0256
5.0101
5.0053
5.0112
5.0266
5.0387
5.0080
5.0388
5.0188
5.0221
5.0593
5.0382
4.9951
5.0079
5.0077
5.0449
5.0331
5.0047
5.0381
5.0506
5.0151
5.0460
5.0157
5.0206
5.0566
5.0294
5.0466
5.0552
5.0315
5.0259
5.0379
5.0086
5.0279
4.9954
5.0438
5.0371
5.0318
5.0022
5.0296
5.0209
5.0500
5.0025
5.0125
5.0446
5.0102
5.0413
5.0399
5.0550
5.0621
5.0309
5.0212
5.0301
5.0381
4.9939
5.0560
5.0370
5.0294
5.0046
5.0538
5.0207
5.0229
5.0331
5.0301
4.9968
5.0507
5.0239
4.9914
4.9999
5.0305
5.0015
5.0223
5.0061
5.0476
5.0351
5.0239
5.0517
5.0433
5.0455
5.0193
5.0185
5.0136
5.0444
5.0253
5.0328
5.0482
5.0336
4.9863
5.0090
5.0215
5.0340
5.0148
5.0077
5.0156
4.9961
5.0059
5.0334
5.0188
5.0002
5.0217
5.0383
5.0299
5.0402
5.0105
5.0246
5.0284
5.0340
5.0433
5.0368
5.0278
5.0351
5.0050
5.0619
5.0324
5.0202
5.0266
5.0184
5.0466
5.0346
5.0287
4.9929
5.0229
5.0372
5.0013
4.9862
5.0132
5.0348
5.0323
5.0118
5.0103
5.0417
5.0248
5.0077
5.0334
5.0580
5.0601
5.0273
5.0472
5.0492
5.0298
5.0059
5.0234
5.0068
5.0032
5.0093
5.0150
5.0058
5.0368
5.0371
5.0560
5.0183
5.0572
5.0146
5.0167
5.0308
5.0681
5.0620
5.0122
5.0197
5.0402
5.0520
5.0315
5.0012
5.0271
5.0320
5.0239
5.0010
5.0445
5.0118
5.0130
5.0312
5.0109
5.0302
5.0255
4.9708
5.0345
5.0319
5.0090
5.0208
5.0045
5.0006
5.0281
4.9924
5.0307
5.0086
4.9804
5.0647
5.0517
5.0065
5.0471
5.0241
4.9932
5.0146
5.0224
5.0276
5.0571
5.0123
5.0345
4.9972
5.0162
5.0229
5.0053
4.9977
5.0115
5.0457
5.0027
5.0627
5.0392
4.9983
5.0168
4.9722
4.9839
4.9983
5.0237
5.0402
5.0201
5.0596
5.0391
5.0447
4.9936
5.0286
4.9913
5.0046
4.9873
5.0422
5.0182
5.0081
5.0107
5.0290
5.0103
5.0174
4.9835
5.0600
5.0435
5.0029
5.0038
5.0301
4.9963
5.0700
4.9963
5.0128
5.0402
5.0326
4.9985
5.0423
5.0262
5.0458
5.0341
5.0178
4.9797
5.0165
5.0026
5.0217
5.0600
5.0207
5.0316
5.0310
5.0291
5.0150
5.0624
5.0102
5.0056
5.0343
5.0307
5.0424
5.0160
5.0402
5.0001
5.0214
5.0079
5.0300
4.9722
5.0337
5.0181
5.0272
5.0379
5.0380
5.0181
5.0504
4.9952
5.0060
5.0804
5.0077
5.0377
4.9995
5.0074
4.9874
5.0489
5.0350
4.9820
4.9947
4.9963
5.0334
4.9924
5.0005
5.0134
4.9876
4.9975
5.0314
5.0732
5.0271
5.0308
5.0200
5.0044
4.9961
5.0537
5.0358
5.0753
5.0212
4.9994
5.0621
5.0341
5.0350
5.0502
5.0029
5.0031
5.0293
5.0221
5.0355
5.0272
5.0090
4.9901
5.0352
5.0313
5.0107
5.0128
5.0302
5.0194
5.0297
4.9707
5.0313
5.0601
5.0149
5.0197
5.0306
5.0033
5.0127
5.0003
5.0268
5.0375
5.0069
5.0248
5.0307
5.0062
4.9814
5.0055
5.0203
5.0249
5.0234
4.9994
5.0625
4.9959
5.0200
5.0445
5.0315
5.0128
5.0218
5.0266
5.0063
4.9926
5.0242
5.0343
5.0091
4.9656
5.0318
5.0324
5.0136
5.0504
4.9980
4.9922
5.0266
4.9879
5.0274
5.0135
5.0135
5.0098
5.0206
5.0320
5.0077
5.0403
4.9833
5.0122
5.0409
4.9918
5.0362
4.9883
5.0053
5.0292
5.0146
4.9990
5.0169
5.0207
4.9879
5.0075
5.0310
4.9995
5.0291
5.0187
5.0167
5.0031
5.0324
5.0361
5.0281
5.0415
5.0064
5.0065
5.0214
4.9896
4.9824
5.0453
5.0285
5.0740
5.0163
4.9991
5.0026
5.0134
5.0144
4.9965
5.0287
5.0060
5.0171
5.0356
5.0392
5.0096
5.0269
5.0195
5.0237
4.9974
5.0484
5.0111
4.9759
4.9764
5.0213
5.0111
5.0106
5.0059
5.0123
5.0274
4.9730
5.0233
5.0033
5.0140
5.0465
5.0014
5.0332
5.0013
5.0320
5.0112
5.0168
5.0336
5.0271
5.0566
5.0147
4.9884
4.9726
5.0085
5.0042
5.0030
5.0400
5.0477
5.0065
4.9789
5.0157
5.0485
4.9865
4.9981
4.9930
5.0316
4.9835
5.0209
5.0083
5.0169
5.0215
5.0196
5.0539
5.0300
5.0245
5.0306
5.0464
5.0298
5.0229
5.0109
4.9957
5.0127
5.0384
4.9956
4.9966
4.9855
5.0244
5.0063
5.0243
5.0045
5.0044
4.9941
5.0456
5.0800
4.9913
5.0036
5.0069
5.0188
5.0126
5.0173
4.9917
5.0691
5.0258
5.0290
5.0252
5.0079
5.0505
5.0404
5.0153
5.0374
5.0367
5.0226
4.9968
5.0295
4.9835
4.9989
4.9742
5.0123
4.9906
5.0565
5.0019
5.0153
5.0193
5.0182
5.0118
5.0312
5.0312
4.9936
5.0276
5.0134
5.0386
5.0166
4.9811
4.9851
5.0335
5.0074
5.0150
5.0279
5.0237
4.9822
5.0509
4.9985
5.0161
5.0187
5.0134
5.0087
5.0191
4.9932
4.9937
5.0252
5.0233
5.0192
5.0488
4.9990
4.9826
4.9992
5.0160
4.9966
5.0142
5.0039
5.0203
5.0126
4.9962
5.0190
5.0055
4.9853
4.9907
5.0111
5.0311
5.0127
5.0168
4.9804
4.9983
5.0195
5.0676
4.9943
4.9813
5.0311
5.0294
5.0054
5.0215
5.0190
4.9612
5.0115
5.0193
5.0074
5.0078
5.0196
4.9856
5.0141
5.0144
4.9821
4.9900
5.0011
4.9816
4.9851
4.9967
4.9995
5.0166
5.0416
4.9942
4.9927
5.0362
5.0041
5.0236
5.0246
5.0261
5.0436
4.9544
5.0073
5.0218
5.0082
5.0328
5.0298
5.0019
5.0043
4.9717
5.0071
5.0624
4.9875
5.0175
4.9945
5.0223
4.9985
5.0028
5.0225
4.9958
5.0230
5.0068
5.0298
5.0372
5.0240
4.9908
5.0497
5.0025
5.0380
4.9730
5.0238
4.9944
5.0045
5.0199
5.0453
5.0126
5.0738
4.9845
5.0136
5.0237
5.0002
4.9874
5.0452
5.0074
4.9954
4.9622
5.0235
5.0159
5.0377
5.0276
5.0025
5.0202
4.9628
5.0196
4.9916
4.9602
5.0184
5.0078
5.0035
5.0052
5.0336
5.0490
5.0161
5.0068
5.0148
5.0206
5.0340
4.9957
5.0178
5.0138
4.9979
5.0128
5.0474
5.0042
5.0220
4.9998
5.0623
5.0046
5.0137
5.0037
4.9944
5.0171
4.9663
4.9984
4.9987
4.9833
5.0121
5.0222
5.0233
4.9657
5.0508
5.0079
5.0202
5.0279
5.0399
5.0070
4.9833
4.9979
5.0415
4.9871
5.0129
5.0213
5.0236
5.0351
4.9820
5.0019
5.0293
4.9884
4.9917
5.0458
4.9728
5.0004
5.0060
5.0087
4.9917
4.9751
4.9858
4.9948
5.0083
5.0085
5.0093
5.0296
5.0293
5.0121
5.0361
4.9904
5.0118
5.0081
4.9806
4.9808
4.9536
5.0403
4.9976
5.0210
5.0223
4.9984
5.0352
5.0182
5.0020
4.9792
5.0072
5.0085
5.0154
5.0106
5.0132
4.9985
4.9954
5.0041
4.9975
4.9773
5.0086
4.9787
4.9888
5.0094
4.9809
4.9858
4.9798
4.9901
5.0497
5.0248
4.9939
4.9790
4.9534
5.0309
5.0112
4.9933
5.0159
5.0012
4.9957
4.9912
5.0324
4.9986
4.9954
5.0149
5.0259
5.0348
5.0039
4.9805
4.9977
5.0123
4.9851
5.0070
5.0267
4.9956
5.0051
4.9995
4.9828
5.0066
5.0120
4.9929
4.9830
5.0134
5.0237
4.9844
5.0309
5.0026
4.9997
5.0106
4.9901
5.0064
4.9909
5.0037
4.9964
4.9883
5.0150
5.0359
5.0484
4.9878
5.0253
4.9812
4.9760
4.9981
4.9977
5.0187
4.9925
5.0185
4.9996
5.0198
4.9801
5.0212
4.9767
5.0136
4.9883
5.0096
5.0193
5.0021
4.9719
5.0368
5.0222
5.0165
4.9944
5.0149
4.9883
4.9978
5.0224
5.0043
5.0155
5.0019
4.9776
5.0100
4.9918
4.9980
4.9692
5.0203
5.0168
5.0360
4.9821
4.9743
4.9863
4.9948
5.0220
4.9996
4.9747
4.9885
5.0225
5.0197
4.9543
4.9901
5.0130
4.9771
4.9878
5.0343
4.9943
5.0261
5.0341
4.9834
5.0113
4.9824
5.0171
4.9925
4.9830
4.9733
4.9879
5.0012
5.0067
4.9771
5.0272
4.9636
4.9818
4.9794
5.0660
4.9951
5.0018
5.0304
5.0158
5.0147
4.9846
5.0051
5.0308
4.9818
5.0158
4.9948
5.0150
5.0051
4.9707
5.0052
4.9764
4.9910
5.0345
5.0042
5.0376
4.9774
5.0126
4.9970
5.0509
5.0099
5.0078
5.0416
4.9717
4.9986
4.9797
5.0298
4.9861
5.0076
4.9872
5.0065
4.9923
5.0282
5.0075
4.9596
5.0393
4.9955
4.9773
4.9608
5.0141
4.9945
5.0140
4.9805
4.9715
5.0445
5.0133
5.0218
5.0125
4.9954
5.0072
5.0371
5.0114
5.0440
5.0164
4.9997
4.9783
5.0247
4.9822
4.9957
5.0157
5.0262
4.9709
4.9971
5.0225
4.9816
4.9801
5.0297
5.0022
5.0146
4.9698
4.9843
5.0097
4.9750
5.0186
4.9906
4.9990
4.9888
5.0064
4.9875
4.9969
5.0377
5.0225
5.0323
4.9992
5.0260
4.9636
4.9870
4.9479
5.0397
5.0038
4.9591
5.0118
4.9953
5.0110
5.0107
4.9928
4.9974
5.0044
4.9991
5.0359
5.0219
5.0336
5.0356
4.9741
5.0101
5.0519
5.0561
4.9938
5.0067
4.9899
4.9953
4.9949
4.9813
5.0068
4.9966
4.9553
5.0159
5.0257
5.0272
4.9924
5.0091
4.9572
4.9785
4.9923
4.9782
4.9872
4.9998
5.0349
5.0461
5.0229
4.9867
4.9949
4.9891
4.9821
5.0126
5.0327
4.9689
5.0049
4.9685
4.9598
5.0177
5.0299
5.0210
5.0206
5.0016
5.0173
4.9712
5.0053
4.9696
4.9848
5.0159
5.0196
5.0029
4.9666
5.0154
4.9531
5.0140
4.9948
5.0091
5.0021
5.0102
5.0359
4.9969
5.0164
4.9636
4.9960
5.0233
5.0434
5.0238
4.9604
4.9672
4.9714
4.9778
5.0021
5.0058
4.9923
4.9841
5.0340
5.0021
4.9707
4.9881
4.9983
4.9716
5.0352
4.9898
4.9906
5.0214
5.0075
4.9983
4.9999
4.9879
4.9895
4.9724
4.9973
4.9729
5.0190
5.0443
4.9788
5.0153
5.0295
5.0141
5.0311
4.9742
5.0232
5.0251
5.0056
4.9814
4.9536
5.0106
5.0090
5.0140
5.0053
5.0068
4.9845
5.0066
4.9996
5.0392
4.9954
5.0003
4.9676
4.9676
5.0327
4.9920
5.0016
4.9847
4.9630
5.0280
5.0332
4.9927
5.0235
5.0227
5.0174
4.9897
4.9643
4.9941
5.0074
5.0231
5.0124
4.9971
5.0162
4.9840
5.0248
4.9865
5.0178
5.0115
4.9947
4.9632
5.0129
4.9581
5.0266
5.0039
4.9515
4.9964
5.0181
5.0018
5.0095
4.9702
5.0076
5.0127
5.0033
5.0404
4.9795
4.9901
4.9927
4.9744
4.9979
4.9946
5.0261
4.9912
4.9734
5.0070
5.0124
4.9949
4.9896
5.0196
5.0033
5.0003
5.0002
5.0165
5.0194
5.0113
5.0267
5.0284
5.0017
4.9799
5.0122
5.0117
4.9929
4.9918
5.0068
5.0043
5.0378
4.9824
5.0067
5.0148
5.0209
4.9909
5.0209
4.9863
4.9866
5.0129
5.0376
4.9940
5.0134
4.9910
5.0094
4.9734
4.9979
4.9482
4.9937
5.0079
4.9915
4.9742
5.0002
4.9822
5.0397
4.9648
5.0106
5.0066
4.9932
4.9650
4.9705
5.0003
5.0145
4.9583
4.9980
5.0099
4.9368
5.0365
4.9586
4.9769
4.9854
4.9476
4.9933
4.9549
5.0254
5.0012
4.9813
4.9887
4.9823
4.9651
5.0223
5.0028
5.0513
4.9484
5.0105
5.0276
4.9806
5.0164
5.0050
4.9918
4.9817
4.9946
5.0190
4.9832
4.9775
5.0431
4.9658
5.0081
5.0048
5.0017
4.9950
4.9922
5.0016
4.9916
5.0002
4.9906
5.0008
4.9786
5.0240
4.9780
4.9650
4.9963
4.9513
5.0270
4.9691
4.9893
4.9985
5.0222
5.0023
5.0022
5.0401
4.9837
4.9884
4.9862
4.9795
4.9778
4.9868
5.0034
5.0025
4.9730
4.9917
5.0058
5.0248
4.9853
5.0476
4.9618
4.9778
4.9978
5.0060
4.9823
5.0065
5.0125
5.0048
4.9832
5.0103
5.0346
4.9860
4.9773
5.0091
5.0251
4.9921
4.9789
5.0053
5.0392
4.9407
5.0226
5.0142
4.9878
4.9985
4.9788
5.0218
5.0065
4.9976
4.9974
5.0138
4.9977
4.9560
5.0391
5.0095
4.9711
4.9959
4.9473
4.9991
4.9842
4.9879
4.9992
5.0291
4.9581
4.9955
5.0166
4.9686
4.9865
5.0111
4.9671
4.9726
5.0058
4.9980
4.9371
4.9924
4.9741
4.9946
4.9827
5.0112
5.0043
4.9910
5.0227
4.9819
4.9759
5.0210
5.0079
4.9903
4.9852
5.0128
5.0289
5.0447
4.9720
5.0169
4.9821
5.0057
5.0088
4.9968
4.9851
4.9897
5.0244
4.9991
4.9840
4.9818
4.9869
4.9843
5.0132
4.9789
5.0115
5.0097
5.0275
4.9783
4.9994
5.0197
5.0186
5.0074
5.0227
4.9689
5.0098
4.9944
4.9746
5.0230
4.9825
4.9904
4.9552
5.0143
5.0126
4.9884
4.9888
4.9655
4.9982
5.0265
4.9772
5.0128
4.9711
4.9960
4.9686
4.9801
5.0154
4.9762
4.9796
4.9585
5.0050
5.0000
5.0115
4.9802
4.9521
5.0018
4.9845
4.9936
4.9754
5.0016
4.9482
4.9807
4.9800
4.9846
5.0026
4.9521
4.9485
4.9749
4.9700
4.9490
5.0216
5.0070
5.0029
4.9708
4.9870
5.0061
5.0177
4.9724
4.9714
5.0167
5.0004
4.9968
4.9587
4.9684
5.0051
4.9933
4.9895
5.0134
5.0196
4.9929
5.0273
4.9697
5.0109
4.9729
4.9689
5.0155
4.9999
5.0254
4.9873
4.9807
4.9521
4.9333
4.9887
4.9462
4.9815
5.0279
4.9811
5.0128
4.9718
5.0382
4.9655
4.9838
4.9920
4.9238
4.9763
4.9848
5.0048
5.0246
4.9780
4.9511
4.9859
4.9992
5.0288
4.9855
5.0105
5.0221
4.9664
4.9372
4.9691
4.9918
5.0063
5.0156
4.9933
5.0020
4.9830
4.9943
4.9885
5.0373
4.9809
4.9794
4.9932
4.9734
4.9766
4.9971
5.0090
5.0086
5.0079
4.9970
4.9781
4.9867
4.9687
4.9764
4.9782
4.9488
4.9646
4.9983
5.0041
5.0242
5.0013
5.0117
4.9975
4.9772
4.9671
4.9872
5.0113
5.0409
4.9952
4.9775
4.9640
4.9820
5.0145
5.0087
5.0033
5.0043
4.9921
4.9618
5.0237
4.9586
5.0007
4.9902
4.9812
4.9830
4.9937
5.0135
4.9403
5.0187
4.9908
4.9961
4.9985
4.9802
4.9897
5.0029
4.9935
4.9864
4.9830
5.0119
4.9628
5.0185
5.0035
4.9613
4.9711
4.9990
5.0106
4.9816
4.9993
4.9949
5.0107
4.9777
4.9724
4.9968
4.9513
4.9724
4.9833
5.0121
4.9730
4.9602
4.9812
4.9781
4.9860
4.9765
4.9665
4.9953
4.9493
4.9787
4.9505
5.0163
5.0016
5.0173
4.9774
4.9508
5.0305
5.0052
5.0177
4.9980
4.9991
5.0008
4.9598
4.9786
4.9779
4.9845
4.9829
4.9404
4.9981
4.9948
5.0220
4.9732
4.9821
4.9890
5.0199
4.9863
4.9954
5.0117
4.9984
5.0143
4.9817
4.9953
5.0045
5.0185
4.9864
4.9854
4.9775
4.9836
5.0202
5.0153
4.9966
4.9784
5.0150
4.9657
4.9943
4.9973
4.9833
4.9967
4.9947
5.0225
4.9847
4.9591
4.9939
5.0107
4.9619
5.0317
4.9977
4.9975
5.0052
5.0123
5.0058
5.0260
5.0058
4.9858
4.9661
5.0073
4.9760
4.9699
5.0056
4.9805
4.9872
4.9832
4.9789
4.9881
4.9620
5.0016
4.9667
4.9975
5.0162
4.9877
5.0084
4.9808
4.9765
5.0091
5.0396
4.9622
4.9895
4.9934
4.9705
4.9617
4.9695
4.9869
4.9721
4.9950
4.9959
4.9841
4.9946
4.9991
4.9518
5.0137
4.9783
5.0149
5.0075
4.9512
4.9961
4.9992
4.9782
4.9627
4.9917
4.9873
5.0026
4.9997
5.0019
4.9957
4.9994
5.0018
4.9922
4.9882
5.0092
4.9846
5.0117
5.0244
4.9814
5.0071
4.9972
5.0268
4.9780
4.9902
5.0019
5.0180
4.9637
4.9892
4.9787
4.9792
5.0032
4.9857
5.0022
4.9747
4.9806
5.0495
4.9808
4.9646
4.9612
5.0166
4.9702
5.0081
5.0124
4.9654
5.0029
4.9953
4.9750
4.9762
4.9849
4.9654
4.9680
4.9983
4.9934
4.9545
5.0163
4.9581
4.9716
4.9778
4.9827
4.9528
4.9551
4.9989
4.9317
4.9841
4.9939
4.9976
5.0118
4.9885
4.9994
4.9946
4.9566
5.0113
4.9863
4.9824
4.9620
5.0109
4.9961
4.9436
4.9938
5.0114
5.0102
4.9903
5.0079
4.9643
4.9780
4.9891
4.9771
4.9948
5.0351
4.9640
4.9836
4.9630
4.9854
4.9648
4.9741
4.9985
4.9986
4.9934
5.0059
5.0063
5.0200
4.9925
4.9773
5.0340
5.0023
4.9774
5.0144
4.9501
4.9885
5.0012
4.9840
4.9891
4.9991
4.9845
5.0276
4.9829
4.9754
4.9955
4.9842
4.9870
4.9924
5.0008
4.9588
4.9784
4.9612
4.9873
5.0149
4.9674
4.9779
4.9439
4.9874
4.9723
5.0141
4.9764
5.0010
4.9893
4.9701
4.9865
4.9362
4.9618
4.9557
4.9667
4.9703
4.9343
4.9837
4.9885
4.9767
5.0190
4.9890
4.9947
4.9944
4.9947
4.9726
5.0097
5.0055
5.0084
5.0119
5.0143
4.9632
4.9583
4.9407
4.9669
4.9766
4.9261
4.9994
5.0049
4.9745
4.9880
4.9686
4.9397
4.9948
4.9960
4.9677
5.0273
4.9651
4.9899
4.9982
4.9994
4.9987
5.0078
4.9989
4.9763
4.9822
4.9744
4.9486
4.9791
5.0046
4.9611
4.9619
4.9648
4.9904
4.9389
4.9691
4.9767
4.9694
4.9839
4.9629
4.9970
4.9760
4.9746
4.9941
4.9668
4.9683
4.9628
4.9777
4.9959
5.0155
4.9582
4.9510
5.0075
5.0032
5.0149
5.0335
5.0110
4.9902
4.9607
4.9893
4.9851
4.9740
4.9713
4.9732
5.0389
4.9830
4.9852
4.9871
4.9825
4.9935
4.9836
4.9944
4.9610
4.9609
5.0159
4.9755
5.0079
4.9639
4.9817
4.9936
5.0101
4.9899
4.9660
4.9542
4.9389
4.9838
5.0111
4.9900
4.9674
4.9711
4.9884
4.9792
4.9925
4.9908
5.0141
4.9271
5.0012
4.9701
4.9475
5.0006
4.9643
5.0036
4.9861
4.9761
4.9957
4.9679
4.9589
5.0323
5.0234
4.9903
4.9913
4.9975
5.0107
5.0054
5.0092
4.9668
4.9755
4.9471
5.0334
5.0193
4.9681
5.0032
4.9675
4.9875
4.9859
4.9915
4.9461
4.9645
4.9830
5.0004
4.9789
4.9612
4.9961
4.9889
4.9579
5.0290
4.9803
4.9865
4.9781
4.9671
4.9796
4.9916
4.9926
4.9565
5.0094
4.9585
4.9588
5.0064
5.0078
4.9977
5.0064
4.9611
4.9841
4.9908
5.0016
4.9540
4.9892
4.9499
5.0010
4.9473
4.9611
5.0129
4.9928
4.9943
4.9606
4.9819
4.9828
4.9486
4.9931
4.9786
4.9593
4.9767
4.9963
4.9653
4.9777
4.9950
4.9712
4.9594
4.9443
4.9656
4.9745
5.0147
4.9897
4.9769
4.9864
4.9780
5.0101
4.9787
4.9816
4.9704
4.9799
4.9882
4.9696
4.9659
4.9895
5.0170
4.9887
4.9971
4.9779
4.9992
4.9703
4.9604
4.9754
4.9632
4.9929
4.9697
4.9433
4.9614
5.0000
4.9828
4.9968
4.9512
4.9931
4.9819
4.9447
4.9662
4.9578
4.9665
4.9793
4.9594
4.9825
5.0368
4.9819
4.9876
4.9786
5.0076
4.9808
4.9907
4.9741
4.9509
4.9946
4.9648
4.9896
4.9506
4.9984
4.9699
4.9924
4.9736
5.0051
4.9395
4.9951
4.9755
4.9626
4.9616
5.0136
4.9903
4.9766
4.9664
5.0295
4.9878
4.9761
4.9886
4.9881
4.9496
4.9931
4.9657
4.9908
4.9952
4.9664
4.9990
4.9878
4.9856
5.0246
4.9587
4.9618
4.9884
4.9859
4.9682
4.9814
4.9795
4.9808
4.9992
4.9749
4.9627
4.9644
4.9797
5.0215
4.9739
4.9891
4.9870
4.9866
4.9560
5.0081
5.0099
4.9751
4.9716
4.9759
4.9657
4.9915
4.9852
4.9455
4.9564
4.9776
4.9792
4.9371
5.0019
4.9624
4.9498
5.0113
5.0143
4.9949
4.9493
4.9930
4.9663
4.9926
4.9531
4.9581
4.9895
5.0047
4.9756
4.9731
4.9450
4.9384
5.0165
4.9612
5.0091
5.0077
4.9448
4.9925
5.0044
4.9885
4.9665
4.9623
4.9914
4.9658
4.9912
4.9853
4.9610
4.9869
5.0034
4.9359
5.0135
4.9967
4.9493
4.9283
5.0103
5.0177
4.9730
4.9669
4.9637
4.9677
4.9534
4.9906
4.9958
4.9805
4.9870
4.9708
4.9941
5.0090
5.0235
4.9376
4.9668
4.9552
4.9749
4.9715
4.9646
4.9593
4.9748
4.9602
4.9700
4.9778
4.9893
4.9786
4.9405
4.9670
4.9962
4.9838
4.9429
4.9352
4.9976
4.9917
4.9858
4.9713
4.9405
5.0205
4.9657
4.9771
4.9586
4.9895
4.9705
4.9623
4.9359
4.9707
4.9871
4.9569
4.9800
4.9583
4.9571
4.9712
4.9796
5.0008
4.9695
4.9290
4.9988
4.9859
4.9790
4.9688
4.9796
4.9706
4.9936
4.9561
4.9637
4.9614
5.0231
4.9607
4.9735
5.0022
4.9874
4.9539
4.9754
5.0008
4.9687
4.9911
4.9877
4.9940
4.9490
4.9636
4.9577
4.9673
4.9803
4.9611
5.0316
4.9596
5.0101
5.0157
4.9520
4.9463
4.9907
4.9709
4.9690
4.9744
4.9853
4.9723
5.0013
5.0007
4.9713
4.9892
4.9422
4.9813
4.9622
4.9765
4.9452
4.9906
4.9753
5.0135
4.9298
4.9847
4.9511
4.9559
4.9824
5.0198
4.9631
4.9873
4.9585
4.9697
5.0330
4.9735
4.9893
4.9998
4.9957
4.9866
4.9865
4.9401
5.0012
4.9164
5.0149
4.9674
4.9636
4.9395
4.9827
4.9620
4.9680
4.9658
4.9582
4.9487
4.9564
5.0126
4.9849
4.9720
4.9652
4.9737
4.9440
4.9494
4.9836
4.9806
4.9841
4.9548
4.9829
4.9325
4.9606
5.0232
4.9762
4.9565
5.0111
5.0021
4.9990
4.9856
4.9759
5.0280
4.9848
4.9945
4.9370
4.9811
4.9623
5.0077
4.9788
5.0026
4.9299
5.0045
4.9892
4.9940
4.9454
5.0203
5.0214
5.0213
4.9885
4.9521
4.9886
4.9653
4.9721
5.0304
4.9761
4.9447
4.9932
4.9854
4.9714
4.9524
4.9520
4.9719
4.9615
5.0126
4.9931
4.9631
4.9683
5.0001
4.9732
4.9713
4.9978
4.9962
4.9731
4.9637
4.9914
4.9734
4.9702
4.9662
4.9772
4.9904
4.9621
4.9843
4.9614
4.9525
4.9815
4.9855
5.0093
4.9383
4.9920
4.9637
4.9865
4.9949
4.9553
4.9741
4.9579
4.9767
4.9650
4.9511
4.9627
4.9649
4.9466
4.9564
4.9677
4.9603
5.0035
4.9893
5.0011
4.9629
4.9758
4.9506
4.9554
5.0088
4.9636
4.9752
4.9835
4.9898
4.9548
4.9480
4.9696
4.9658
5.0092
4.9833
4.9699
4.9852
4.9778
4.9779
4.9994
4.9702
5.0002
5.0072
4.9442
4.9550
4.9878
4.9425
4.9388
4.9658
4.9331
4.9959
4.9676
4.9855
4.9714
4.9703
4.9820
5.0269
4.9300
4.9704
4.9688
4.9596
4.9687
4.9487
4.9472
4.9876
4.9756
4.9798
4.9992
5.0264
4.9682
4.9642
5.0071
4.9483
4.9961
4.9810
4.9288
4.9931
5.0163
5.0108
4.9777
4.9700
4.9297
4.9538
4.9563
4.9600
5.0005
4.9683
4.9695
4.9733
5.0133
4.9763
4.9572
4.9895
4.9686
4.9252
5.0041
4.9552
4.9712
4.9973
4.9867
4.9760
4.9541
4.9532
4.9710
4.9605
4.9592
4.9321
4.9903
5.0074
4.9619
4.9573
4.9688
5.0006
4.9313
4.9743
4.9690
4.9479
4.9283
4.9737
4.9899
4.9934
4.9990
4.9720
4.9706
4.9839
4.9812
4.9829
4.9732
4.9530
4.9930
4.9939
4.9320
4.9665
4.9536
4.9458
4.9637
4.9572
4.9918
4.9639
4.9690
4.9975
4.9730
4.9535
4.9249
4.9556
4.9272
4.9659
4.9936
4.9561
4.9594
4.9862
4.9617
4.9785
4.9861
4.9758
4.9774
4.9773
4.9538
4.9428
4.9726
4.9356
4.9401
4.9996
4.9964
4.9422
4.9834
5.0048
4.9628
4.9642
4.9650
4.9965
4.9893
4.9339
5.0063
4.9544
4.9832
4.9737
4.9926
5.0223
4.9775
4.9357
4.9826
4.9847
5.0004
4.9772
4.9732
5.0055
4.9623
4.9469
4.9649
4.9716
4.9566
4.9536
5.0177
5.0190
4.9955
4.9581
4.9609
4.9447
4.9576
4.9340
4.9295
4.9641
4.9996
4.9658
4.9747
4.9259
4.9401
4.9901
4.9426
4.9820
4.9655
5.0090
4.9882
5.0008
4.9832
4.9413
4.9370
4.9934
5.0099
4.9726
5.0087
4.9829
4.9816
4.9781
4.9515
4.9593
4.9771
4.9571
4.9889
4.9727
4.9994
4.9638
4.9329
5.0135
4.9808
4.9637
5.0077
4.9460
4.9713
4.9651
4.9758
4.9732
4.9498
4.9942
5.0037
4.9734
4.9861
4.9843
4.9283
4.9656
4.9742
4.9923
4.9953
4.9784
4.9959
5.0047
4.9565
4.9865
4.9687
4.9851
4.9633
4.9896
4.9507
4.9796
4.9477
4.9434
4.9763
4.9594
5.0124
4.9827
4.9641
4.9613
4.9356
4.9775
4.9557
4.9803
4.9595
4.9602
5.0307
5.0387
5.0149
4.9865
4.9872
4.9738
4.9517
4.9449
5.0012
4.9565
4.9513
4.9639
4.9937
4.9565
4.9923
4.9917
4.9041
4.9719
4.9892
4.9765
4.9231
4.9397
4.9693
4.9547
4.9683
4.9605
5.0038
4.9953
4.9632
4.9897
4.9567
4.9727
4.9603
4.9403
4.9780
4.9386
4.9471
4.9780
4.9763
4.9883
4.9434
4.9698
4.9429
4.9869
4.9715
4.9770
4.9623
4.9119
4.9693
4.9843
4.9790
4.9750
4.9673
4.9582
4.9334
4.9689
4.9404
5.0238
5.0024
4.9804
4.9410
5.0050
4.9709
4.9812
4.9674
4.9620
5.0067
4.9797
4.9293
5.0158
4.9923
4.9874
4.9353
4.9821
4.9379
4.9738
4.9704
4.9588
4.9843
5.0045
4.9819
4.9789
4.9491
4.9669
4.9570
4.9555
4.9441
4.9603
4.9973
4.9464
4.9437
4.9676
4.9769
4.9627
4.9584
4.9750
4.9823
4.9757
4.9942
4.9687
4.9670
4.9960
4.9535
4.9709
4.9481
4.9883
4.9608
4.9582
4.9919
4.9901
4.9098
4.9565
4.9499
4.9474
4.9646
4.9436
4.9437
5.0044
4.9575
4.9497
4.9644
4.9781
4.9433
4.9590
4.9691
4.9671
4.9629
4.9656
4.9730
4.9690
4.9818
4.9649
4.9530
4.9657
4.9622
4.9698
4.9982
4.9812
4.9210
4.9735
4.9635
4.9495
4.9780
5.0051
4.9984
4.9792
4.9728
4.9227
4.9864
4.9779
4.9724
4.9632
4.9260
4.9904
4.9628
4.9929
4.9621
4.9799
4.9528
4.9297
4.9695
4.9682
4.9796
5.0197
4.9745
4.9251
4.9646
4.9730
4.9721
4.9771
4.9344
4.9738
4.9693
4.9671
4.9751
4.9795
4.9815
4.9140
4.9937
5.0030
4.9604
4.9909
4.9372
4.9604
4.9581
4.9582
4.9335
4.9679
4.9672
5.0098
4.9310
4.9591
4.9633
4.9450
4.9452
4.9801
4.9705
4.9435
4.9622
4.9924
4.9079
4.9845
4.9625
4.9421
4.9762
4.9770
4.9756
4.9560
5.0163
4.9838
4.9774
5.0158
4.9617
4.9550
4.9355
4.9591
4.9748
4.9701
4.9671
4.9485
5.0024
5.0015
4.9899
4.9583
4.9579
4.9564
4.9882
4.9647
4.9356
4.9248
4.9485
4.9756
4.9557
4.9369
4.9972
5.0134
4.9792
4.9885
4.9955
4.9863
4.9277
4.9485
4.9460
4.9670
4.9546
4.9281
4.9758
4.9354
4.9472
4.9346
4.9960
4.9347
4.9628
4.9606
4.9707
4.9510
5.0042
4.9400
5.0126
4.9711
4.9717
4.9826
4.9634
4.9915
4.9888
4.9572
4.9751
4.9575
4.9626
4.9588
4.9553
4.9470
4.9768
4.9606
4.9858
4.9430
4.9595
4.9645
4.9318
4.9543
4.9630
4.9662
4.9446
4.9760
4.9448
4.9719
4.9839
4.9585
4.9637
4.9897
4.9657
4.9594
5.0153
4.9385
4.9598
4.9614
4.9882
4.9554
4.9397
4.9575
4.9554
4.9837
4.9966
4.9851
4.9849
4.9717
4.9593
4.9570
4.9321
4.9908
4.9715
4.9312
4.9507
4.9511
4.9402
4.9587
4.9443
4.9353
4.9557
4.9877
4.9682
4.9496
4.9542
4.9497
4.9261
4.9950
4.9466
4.9663
4.9658
4.9572
4.9950
4.9527
5.0015
5.0047
4.9841
4.9552
4.9940
4.9854
4.9485
4.9549
4.9933
4.9593
4.9350
4.9662
4.9672
4.9420
4.9767
4.9208
4.9910
4.9404
4.9421
4.9788
4.9409
4.9422
4.9982
4.9304
4.9534
4.9388
4.9963
4.9541
4.9648
4.9914
5.0191
4.9395
5.0082
4.9480
4.9668
4.9752
4.9433
5.0139
4.9374
4.9873
4.9415
4.9696
4.9491
4.9681
4.9331
5.0172
4.9496
4.9861
4.9458
4.9720
4.9415
4.9824
4.9689
5.0109
4.9687
4.9396
4.9713
4.9661
4.9822
4.9399
4.9682
4.9404
4.9676
4.9813
4.9959
4.9618
4.9889
4.9504
4.9332
4.9632
4.9726
4.9669
4.9620
4.9598
4.9364
4.9502
4.9545
4.9711
4.9864
4.9381
4.9568
4.9257
4.9404
4.9626
4.9564
4.9522
4.9749
4.9834
4.9413
4.9877
4.9194
4.9511
4.9751
4.9245
4.9890
4.9104
4.9546
4.9567
4.9683
4.9572
5.0051
4.9547
4.9609
4.9909
4.9850
4.9463
4.9442
5.0036
4.9597
4.9411
4.9920
4.9796
4.9414
4.9319
4.9791
4.9713
4.9688
4.9760
4.9847
4.9856
5.0007
4.9896
4.9293
4.9780
4.9982
4.9796
4.9303
4.9772
4.9327
4.9574
4.9389
4.9276
4.9270
4.9960
4.9820
4.9473
4.9416
4.9554
4.9692
4.9605
4.9294
4.9463
4.9614
4.9638
4.9464
4.9455
4.9754
4.9680
4.9180
4.9778
4.9676
4.9247
4.9821
4.9798
4.9748
4.9685
4.9391
4.9568
4.9198
4.9599
4.9736
4.9424
4.9554
4.9422
4.9488
5.0061
4.9456
4.9314
4.9238
4.9944
4.9236
4.9578
4.9658
4.9207
4.9903
4.9632
4.9442
4.9392
4.9359
4.9473
4.9513
4.9553
4.9817
5.0155
4.9850
4.9758
4.9386
4.9602
4.9786
4.9459
4.9590
4.9430
4.9416
4.9435
4.9307
4.9348
4.9855
5.0032
4.9379
4.9712
4.9663
4.9512
4.9648
4.9724
4.9661
4.9307
5.0129
4.9823
4.9980
4.9685
4.9609
4.9280
4.9595
4.9759
4.9711
4.9732
4.9767
4.9720
4.9456
4.9443
4.9601
4.9890
4.9740
4.9865
4.9790
4.9837
4.9081
4.9466
4.9444
4.9657
4.9429
4.9870
4.9420
4.9471
4.9529
4.9162
4.9466
4.9821
4.9689
4.9755
4.9466
4.9023
4.9452
4.9685
4.9550
4.9675
4.9461
4.9536
4.9669
4.9777
4.9545
4.9538
4.9145
4.9685
4.9511
4.9546
4.9371
4.9345
4.9373
4.9467
4.9705
4.9650
4.9605
4.9733
4.9703
4.9708
4.9840
4.9492
4.9188
4.9396
4.9464
4.9924
4.9679
4.9865
4.9980
4.9574
4.9851
4.9394
4.9803
4.8948
4.9257
4.9248
4.9864
4.9804
4.9518
4.9493
4.9718
4.9649
4.9640
4.9756
4.9189
5.0012
4.9656
4.9326
4.9613
4.9576
4.9533
4.9654
4.9372
4.9346
4.9323
4.9548
4.9406
4.9589
4.9615
4.9706
5.0188
4.9311
4.9270
4.9962
4.9917
4.9567
4.9432
4.9795
4.9501
4.9634
4.9244
4.9694
4.9234
4.9947
4.9697
4.9301
4.9563
4.8767
4.9565
4.9584
4.9576
4.9607
4.9564
4.9756
4.9839
4.9639
4.9738
4.9612
4.9736
4.9429
4.9683
4.9803
4.9968
4.9527
4.9494
4.9498
4.9527
4.9471
4.9530
4.9329
4.9162
4.9514
4.9540
4.9655
4.9592
4.9781
4.9998
4.9631
4.9817
4.9990
4.9106
4.9897
4.9127
4.9713
4.9580
4.9301
4.9964
4.9745
4.9651
4.9595
4.9241
4.9405
4.9302
4.9613
4.9786
4.9437
4.9446
4.9581
4.9582
4.9488
4.9551
4.9622
4.9908
4.9718
4.9550
4.9395
4.9384
4.9406
4.9597
4.9314
4.9728
4.9440
4.9573
4.9105
4.9331
4.9549
4.9195
4.9971
4.9641
4.9880
4.9626
4.9216
4.9486
4.9442
4.9732
4.9709
4.9581
4.9555
4.9353
5.0090
4.9578
4.9582
4.9528
4.9684
4.9552
4.9247
4.9420
5.0132
4.9495
4.9432
4.9488
4.9543
4.9384
4.9477
4.9733
4.9794
4.9812
4.9463
4.9330
4.9244
4.9426
4.9550
4.9564
4.8958
4.9839
4.9194
4.9734
4.9750
4.9534
4.9513
4.9414
4.9703
4.9578
4.9935
4.9923
4.9420
4.9551
4.9752
4.9485
4.9474
4.9476
4.9475
4.9439
4.9484
4.9718
4.9947
4.9356
4.9774
4.9133
4.9355
4.9796
4.9531
4.9252
4.9939
4.9273
4.9249
4.9591
4.9815
4.9319
4.9511
4.9662
4.9773
4.9519
4.9328
5.0035
4.9741
4.9429
4.9198
4.9842
4.9881
4.9233
4.9895
4.9469
4.9322
4.9835
4.9360
4.9824
4.9591
4.9265
4.9435
4.9302
4.9439
4.9494
4.9620
4.9594
4.9648
4.9705
4.9745
4.9589
4.9546
4.9432
4.9860
5.0130
4.9427
4.9903
4.9250
4.9396
4.9452
4.9241
4.9559
4.9491
4.9489
5.0178
4.9488
4.9400
4.9323
4.9765
4.9566
4.9442
4.9539
4.9419
4.8990
4.9428
4.9300
4.9544
4.9620
4.9646
4.9498
4.9785
4.9548
5.0047
4.9902
4.9887
4.9847
4.9388
4.9654
4.9478
4.9560
4.9789
4.9345
4.9514
4.9522
4.9547
4.9547
4.9897
4.9675
4.9547
4.9693
4.9431
5.0006
4.9404
4.9641
4.9432
4.9155
4.9202
4.9806
4.9361
4.9751
4.9180
4.9383
4.9688
4.9123
4.8803
4.9506
4.9418
4.9571
4.9446
4.9141
4.9816
4.9312
4.9547
4.9006
4.9873
4.9668
4.9878
4.9525
4.9820
4.9538
4.9935
4.9691
4.9550
4.9558
4.9699
4.9756
4.9248
4.9590
4.9507
4.9745
4.9793
4.9726
4.9321
4.9953
4.9414
4.9680
4.9394
4.9706
4.9866
4.9833
4.9554
4.9392
4.9664
4.9717
4.9535
4.9532
4.9253
4.9707
4.9856
4.9336
4.9486
4.9046
4.9661
4.9861
4.9732
4.9051
4.9485
4.9880
4.9837
4.9513
4.9316
4.9992
4.9483
4.9338
4.9588
4.9630
4.9504
4.9613
4.9313
4.9531
4.9473
4.9295
4.9399
4.9055
4.8961
4.9371
4.8966
4.9407
4.9733
4.9559
4.9390
4.9297
4.9539
4.9469
4.9475
4.9628
4.8946
4.9233
4.9575
4.9761
4.9516
4.9795
4.9722
4.9496
4.9622
4.9670
4.9274
4.9555
4.9369
4.9591
5.0035
4.9631
4.9530
4.9770
4.9633
4.9683
4.9503
4.9764
4.9276
4.9661
4.9431
4.9497
4.9557
4.9441
4.9087
4.9334
4.9291
4.9586
4.9362
4.9338
4.9589
4.9480
4.9558
4.9492
4.9338
4.9312
4.9239
4.9015
4.9527
4.9569
4.9718
4.9289
4.9692
4.9296
4.9760
4.9381
4.9312
4.9450
4.9266
4.9244
4.9773
4.9448
4.9793
4.9948
4.9726
4.9405
4.9600
4.9699
4.9751
4.9286
4.9017
4.9637
4.9872
4.9769
4.9465
4.9448
4.9442
4.9138
4.9518
4.9458
4.9694
4.9015
4.9319
4.9458
4.9405
4.9100
4.9682
4.9340
4.9391
4.9659
4.9027
4.9627
4.9730
4.9795
4.9448
4.9410
4.9429
4.9354
4.9262
4.9563
4.9206
4.9613
4.9488
4.9366
4.9736
4.9094
4.9167
4.9266
4.9535
4.9998
4.9405
4.9875
4.9653
4.9420
4.9533
4.9651
4.9404
4.9792
4.9472
4.9447
4.9761
4.9337
4.9379
4.9687
4.9068
4.9345
4.9579
4.9768
4.9677
4.9801
4.9356
4.9334
4.9383
4.9621
4.9463
4.9187
4.9521
4.9585
4.9977
4.9375
4.9159
4.9592
4.9676
4.9501
4.9317
4.9287
4.9540
4.9597
4.9483
4.9425
4.9441
4.9540
4.9477
4.9382
4.9429
4.9834
4.9669
4.9289
4.9711
4.9499
4.9909
4.9765
4.9504
4.9226
4.9355
4.9406
4.9732
4.9540
4.9771
4.9374
4.9295
4.9561
4.9532
4.9538
4.9451
4.9132
4.9166
4.8987
4.9665
4.9370
4.9686
4.9711
4.9630
4.9572
4.9646
4.9710
4.9461
4.9678
4.9390
4.9478
4.9608
4.9752
4.9380
4.9359
4.9519
4.9861
4.9415
4.9444
4.9266
4.9225
4.9021
4.9256
4.9301
4.9243
4.9554
4.9028
4.9451
4.9042
4.9304
4.9395
4.9299
4.9487
4.9718
4.9662
4.9368
4.9226
4.9466
4.9559
4.9713
4.9430
4.9644
4.9582
4.9475
4.9565
4.9837
4.9328
4.9403
4.9613
4.9597
4.9690
4.9433
4.9960
4.9252
4.9676
4.9845
4.9467
4.9187
4.9177
4.9015
4.8945
4.9239
4.9376
4.9239
4.9675
4.9440
4.9482
4.9400
4.9627
4.9539
5.0019
4.9470
4.9575
4.9408
4.9360
4.9604
4.9993
4.9450
4.9570
4.9521
4.9639
4.9244
4.9712
4.9295
4.9159
4.9670
4.9577
4.9264
4.9747
4.9133
4.9304
4.9283
4.9096
4.9546
4.9726
4.9039
4.9960
4.9840
4.9726
4.9573
4.9773
4.9693
4.9924
4.9540
4.9524
4.9447
4.9451
4.9424
4.9279
4.9668
4.9462
4.9754
4.9201
4.9219
4.9414
4.9637
4.9591
4.9460
4.9668
4.9433
4.9149
4.9636
4.9305
4.9522
5.0032
4.9400
4.9387
4.9337
4.9310
4.9442
4.9619
4.9426
4.9594
4.9554
4.9249
4.9766
4.9540
4.9501
4.9415
4.9258
4.9641
4.9901
4.9527
4.9604
4.9389
4.9182
4.9330
4.9482
4.9610
4.9400
4.9018
5.0106
4.9443
4.8901
4.9804
4.9630
4.9329
4.9688
4.9506
4.9424
4.9644
4.9790
4.9594
4.9723
4.9288
4.9825
4.9129
4.9419
4.9336
4.9715
4.9301
4.9473
4.9293
4.9697
4.8923
4.9703
4.9649
4.9866
4.9081
4.9276
4.9135
4.8912
4.9238
4.9335
4.9268
4.9862
4.9717
4.9183
4.9664
4.9013
4.9447
4.9543
4.9722
4.9568
4.9452
4.9308
4.9536
4.9406
4.9481
4.9159
4.9518
4.9421
4.9617
4.9109
4.9380
4.9673
4.9631
4.9619
4.9492
4.9436
4.9537
4.9390
4.9868
4.9227
4.9644
4.9782
4.9804
4.9382
4.9219
4.9158
4.9588
4.9361
4.9563
4.9523
4.9554
4.9365
4.9359
4.9524
4.9407
4.9582
4.9589
4.9488
4.9819
4.9263
4.9333
4.9675
4.9764
4.9897
4.9697
4.9400
4.9649
4.9182
4.9499
4.9208
4.9254
4.9717
4.9687
4.9066
4.9333
4.9447
4.9377
4.9957
4.9352
4.9322
4.9717
4.9699
4.9347
5.0050
4.9539
4.9407
4.9324
4.9509
4.9521
4.9410
4.9317
4.9414
4.9557
4.9071
4.9652
4.9623
4.9626
4.9595
4.9883
5.0022
4.9632
4.9369
4.9439
4.9488
4.9206
4.9686
4.9305
4.9247
4.9646
4.9655
4.9608
4.9600
4.9029
4.9738
4.9445
4.9500
4.9008
4.9816
4.9141
4.9655
4.9432
4.9533
4.9430
4.9338
4.9411
4.9459
4.9423
4.9365
4.9425
4.9514
4.9479
4.9322
4.9340
4.9284
4.9710
4.9263
4.9644
4.9263
4.9650
4.9800
4.9413
4.9525
4.9760
4.9904
4.8976
4.9508
4.9679
4.9438
4.9502
4.9719
4.9274
4.9264
4.9077
4.9314
4.9319
4.9389
4.9551
4.9440
4.9303
4.9750
4.9370
4.9017
4.9385
4.9489
4.9634
4.9191
4.9478
4.9330
4.9655
4.9340
4.9268
4.9063
4.9482
4.9480
4.9296
4.9485
4.9306
5.0123
4.9715
4.9538
4.9159
4.9158
4.9787
4.9333
4.9236
4.9103
4.9475
4.9475
4.9623
4.9922
4.9456
4.9645
4.9526
4.9232
4.9687
4.9264
4.9427
4.9596
4.9690
4.9607
4.9497
4.9307
4.9264
4.9530
4.9375
4.9278
4.9340
4.9396
4.9143
4.9206
4.9335
4.9697
4.9431
4.9431
4.8950
4.9008
4.9292
4.9414
4.9190
4.9272
4.9563
4.9284
4.9333
4.9596
4.9799
4.9792
4.9369
4.9523
4.9849
4.9501
4.9686
4.9127
4.9432
4.9452
4.9458
4.9871
4.9180
4.9406
4.9535
4.9382
4.9355
4.9308
4.9536
4.9254
4.9294
4.9451
4.9434
4.9546
5.0122
4.9158
4.9545
4.9242
4.9291
4.9709
4.8987
4.9586
4.9187
4.9079
4.9822
4.8963
4.9342
4.9369
4.9474
5.0006
4.9670
4.9519
4.9393
4.9268
4.9669
4.9606
4.9408
4.9631
4.9546
4.9203
4.9342
4.9492
4.9572
4.9366
4.9199
4.9438
4.9102
4.9805
4.8966
4.9381
4.9348
4.8994
4.9577
4.9701
4.9373
4.9351
4.9325
4.9465
4.9308
4.9645
4.9639
4.9330
4.9845
4.9659
4.9585
4.9242
4.9106
4.9310
4.9463
4.9824
4.9345
4.9870
4.9794
4.9647
4.9737
4.9462
4.9753
4.9104
4.9400
4.9632
4.9531
4.9564
4.9146
4.9515
4.9294
4.9720
4.9619
4.9819
4.9149
4.9351
4.9437
4.9222
4.9665
4.9426
4.9493
4.9571
4.9420
4.9295
4.9735
4.9376
4.9241
4.9204
4.9457
4.8810
4.9381
4.9231
4.9646
4.9742
4.9617
4.9565
4.9372
4.9561
4.8874
4.9229
4.9517
4.9292
4.8792
4.9145
4.9236
4.9334
4.9539
4.9312
4.9310
4.9254
4.9432
4.9324
4.9701
4.9377
4.9432
4.9238
4.9604
4.9587
4.9551
4.9571
4.9519
4.9243
4.9643
4.9289
4.9204
4.9697
4.9539
4.9532
4.9151
4.9276
4.9696
4.9649
4.9155
4.8941
4.9293
4.9080
4.9264
4.9270
4.9798
4.9196
4.9442
4.9639
4.9807
4.9059
4.9794
4.9298
4.9302
4.9527
4.9352
4.9316
4.9412
4.8951
4.9209
4.9556
4.9650
4.9378
4.9612
4.9542
4.9520
4.9481
4.9217
4.9658
4.9362
4.9841
4.9316
4.9428
4.9042
4.9789
4.9371
4.9224
4.9390
4.9178
4.9276
4.9194
4.9410
4.9142
4.9734
4.9530
4.9490
4.9278
4.9547
4.9319
4.9206
4.9341
4.9480
4.9816
4.9533
4.9403
4.9720
4.9023
4.9579
4.9433
4.9206
4.9650
4.9461
4.9142
4.9422
4.9211
4.9249
4.9515
4.9138
4.9402
4.9520
4.9122
4.9294
4.9146
4.9473
4.9766
4.9394
4.8898
4.9338
4.9511
4.9379
4.9621
4.9207
4.9342
4.9133
4.9145
4.9360
4.9611
4.9398
4.9207
4.9494
4.9549
4.9619
4.9400
4.9370
4.9455
4.9442
4.9595
4.9219
4.9426
4.9416
4.9378
4.9788
4.9576
4.9522
4.9325
4.9586
4.9460
4.9352
4.9705
4.9542
4.9346
4.9234
4.9415
4.9208
4.9419
4.9464
4.9405
4.9254
4.9767
4.9515
4.9347
4.9332
4.9341
4.9409
4.9331
4.9436
4.9272
4.9289
4.9168
4.9467
4.9490
4.9670
4.9227
4.9178
4.9381
4.9578
4.8822
4.9115
4.9461
4.9430
4.9361
4.9236
4.9439
4.9385
4.8982
4.9378
4.9061
4.9649
4.9050
4.9125
4.9569
4.9890
4.9269
4.9418
4.9736
4.9260
4.8987
4.9659
4.9083
4.9364
4.8841
4.9498
4.9239
4.9380
4.9747
4.9282
4.9747
4.9404
4.9004
4.9052
4.9504
4.9265
4.9040
4.9793
4.9438
4.9289
4.9342
4.9333
4.9360
4.9387
4.9262
4.9762
4.9283
4.9435
4.9416
4.9406
4.9398
4.9140
4.9873
4.9467
4.9350
4.9381
4.9087
4.9454
4.9557
4.9364
4.9336
5.0047
4.9027
4.9594
4.9601
4.9197
4.9496
4.9236
4.9109
4.9259
4.9405
4.9120
4.9309
4.9369
4.9734
4.9200
4.9267
4.9228
4.9368
4.9269
4.9103
4.9303
4.9608
4.9092
4.9313
4.9267
4.9413
4.9203
4.9760
4.9291
4.9483
4.9111
4.9741
4.9330
4.9319
4.9467
4.9492
4.9302
4.9973
4.9394
4.9178
4.9479
4.9348
4.9335
4.9587
4.9505
4.9514
4.9536
4.9266
4.9506
4.9366
4.9363
4.8963
4.9479
4.8805
4.9604
4.9126
4.9144
4.9648
4.9349
4.9260
4.9428
4.9102
4.9437
4.9258
4.9396
4.9546
4.9872
4.9310
4.9386
4.9707
4.9112
4.9442
4.9202
4.9312
4.9146
4.9881
4.9593
4.9660
4.9325
4.9531
4.9038
4.9733
4.9639
4.9078
4.9156
4.9258
4.9058
4.9704
4.9540
4.9642
4.9486
4.9148
4.9546
4.9672
4.9115
4.8896
4.9014
4.9551
4.9377
4.9394
4.9276
4.9435
4.9392
4.9206
4.9623
4.8968
4.9354
4.9362
4.9181
4.9178
4.9229
4.9388
5.0121
4.9274
4.9655
4.8975
4.9317
4.9277
4.9224
4.9231
4.9857
4.9145
4.9314
4.9487
4.9376
4.9223
4.8939
4.9492
4.9264
4.9277
4.9001
4.9369
4.9576
4.9974
4.9368
4.9171
4.9329
4.9218
4.9464
4.9326
4.9204
4.9310
4.9251
4.8921
4.9644
4.9270
4.9432
4.9524
4.9165
4.8957
4.9196
4.9335
4.9342
4.9230
4.9544
4.9681
4.9083
4.9566
4.9699
4.9356
4.9332
4.9335
4.9418
4.9767
4.9236
4.9455
4.9526
4.9580
4.9242
4.9379
4.9250
4.9044
4.9443
4.9173
4.9596
4.8910
4.9575
4.9218
4.9425
4.9517
4.9207
4.9454
4.9116
4.9361
4.9430
4.9260
4.8448
4.9415
4.9160
4.9531
4.9021
4.9162
4.9315
4.9158
4.9398
4.9403
4.8919
4.9305
4.9681
4.9203
4.9543
4.9266
4.9232
4.9141
4.9351
4.9355
4.9132
4.9371
4.9228
4.9062
4.9503
4.9560
4.8983
4.9358
4.9136
4.9250
4.9191
4.9258
4.9110
4.9236
4.9365
4.9430
4.9175
4.9559
4.9165
4.9245
4.9521
4.9641
4.9409
4.9062
4.8915
4.9580
4.9379
4.9438
4.9229
4.9206
4.9524
4.9103
4.9272
4.8952
4.8954
4.9384
4.9393
4.9141
4.9561
4.9268
4.9057
4.9503
4.9220
4.8930
4.9267
5.0240
4.9316
4.9345
4.9078
4.9438
4.9512
4.9249
4.9388
4.9650
4.9127
4.9712
4.9222
4.9429
4.8907
4.8853
4.9250
4.9477
4.9035
4.9245
4.9245
4.9441
4.9338
4.9336
4.9218
4.9670
4.9258
4.9158
4.8921
4.9701
4.9445
4.9179
4.8903
4.9230
4.9513
4.8911
4.9486
4.9337
4.9445
4.8980
4.9693
4.9240
4.9482
4.9757
4.9389
4.9127
4.9084
4.9085
4.9627
4.9047
4.9355
4.9573
4.9320
4.9704
4.9858
4.9490
4.9158
4.9381
4.9348
4.9300
4.9624
4.8939
4.9402
4.9420
4.9770
4.9454
4.9149
4.9090
4.9419
4.9223
4.9603
4.9562
4.9137
4.9444
4.8935
4.9255
4.9603
4.9184
4.9498
4.9365
4.9059
4.8762
4.9209
4.9370
4.9185
4.9659
4.9650
4.9728
4.9812
4.8829
4.9499
4.9512
4.9504
4.8893
4.8893
4.9547
4.9493
4.9703
4.9467
4.9511
4.9212
4.9201
4.9163
4.9225
4.9081
4.9215
4.9057
4.9158
4.9017
4.8806
4.9238
4.9645
4.9182
4.9216
4.9278
4.9378
4.9537
4.8927
4.9740
4.9212
4.9345
4.9719
4.9495
4.8898
4.9238
4.9650
4.9658
4.9516
4.9866
4.9435
4.9342
4.9251
4.9819
4.9411
4.9095
4.9186
4.9349
4.9549
4.9416
4.9224
4.9569
4.9351
4.9015
4.9401
4.8934
4.9238
4.9410
4.8775
4.8888
4.9055
4.9708
4.9198
4.9417
4.9417
4.9183
4.9490
4.9493
4.9211
4.9278
4.9281
4.9336
4.9321
4.9036
4.9329
4.9368
4.9519
4.9230
4.9174
4.9553
4.9353
4.9668
4.8692
4.9277
4.9337
4.9223
4.9371
4.9670
4.8938
4.9229
4.9191
4.9216
4.9355
4.9292
4.9621
4.9517
4.9501
4.8904
4.9056
4.9187
4.8836
4.9203
4.9161
4.9543
4.9187
4.8724
4.9114
4.9381
4.9627
4.9203
4.9165
4.9419
4.8857
4.9058
4.9091
4.9687
4.9114
4.9632
4.9618
4.9727
4.9736
4.9262
4.9557
4.9385
4.8742
4.9245
4.9463
4.9180
4.9482
4.9548
4.9540
4.9400
4.9311
4.9750
4.9746
4.9379
4.8802
4.9578
4.9077
4.9331
4.9504
4.9089
4.9371
4.9368
4.9523
4.9459
4.9075
5.0002
4.9075
4.9473
4.9168
4.9295
4.9336
4.9334
4.9520
4.9506
4.9413
4.9655
4.9515
4.9327
4.9494
4.9147
4.8968
4.9181
4.9316
4.9234
4.9745
4.9724
4.9271
4.9427
4.9125
4.9494
4.9077
4.9030
4.9142
4.9320
4.9046
4.9575
4.8991
4.9195
4.9051
4.9545
4.9298
4.9029
4.8886
4.9465
4.9174
4.9114
4.9285
4.9256
4.9218
4.9011
4.9118
4.9340
4.9682
4.9418
4.9183
4.9450
4.9309
4.9094
4.9438
4.9393
4.9549
4.9034
4.9439
4.9432
4.9540
4.9537
4.9336
4.9555
4.9445
4.9426
4.9597
4.9392
4.9436
4.9498
4.9231
4.8854
4.9346
4.9425
4.9458
4.9261
4.9436
4.9078
4.9555
4.9330
4.9409
4.9145
4.9062
4.9202
4.9060
4.9683
4.9278
4.9563
4.9162
4.9260
4.9373
4.9168
4.9505
4.9295
4.9075
4.8939
4.9648
4.9483
4.9248
4.9323
4.9617
4.9100
4.9145
4.9325
4.9458
4.9434
4.9530
4.9415
4.9208
4.9202
4.9425
4.8949
4.9588
4.9198
4.9079
4.9361
4.8974
4.8850
4.9450
4.9380
4.9505
4.8735
4.9723
4.9431
4.9205
4.9234
4.9086
4.9341
4.9170
4.9310
4.8846
4.9011
4.9455
4.9470
4.9086
4.9367
4.8854
4.9465
4.8976
4.9444
4.9385
4.9269
4.9315
4.9349
4.9086
4.9433
4.9526
4.9566
4.9198
4.9264
4.9146
4.9200
4.9131
4.9147
4.9022
4.9514
4.9073
4.9130
4.9229
4.9432
4.9366
4.9277
4.9511
4.8949
4.8949
4.8969
4.9338
4.9647
4.9349
4.9722
4.9491
4.9496
4.9124
4.9162
4.9537
4.9637
4.9397
4.9506
4.9052
4.9565
4.8864
4.9566
4.9265
4.9585
4.9498
4.8903
4.9130
4.9187
4.9617
4.9645
4.9371
4.9045
4.9273
4.9210
4.9469
4.9332
4.9253
4.9192
4.9096
4.9262
4.9140
4.9352
4.9464
4.9346
4.9488
4.9811
4.9372
4.9555
4.9293
4.9444
4.8853
4.9421
4.9491
4.9308
4.9891
4.9504
4.9299
4.9116
4.9206
4.9011
4.9154
4.9089
4.9459
4.8744
4.9160
4.8972
4.8960
4.9111
4.9513
4.9479
4.9110
4.9464
4.9435
4.9574
4.9259
4.9393
4.9537
4.9348
4.9427
4.9416
4.9542
4.8969
4.9560
4.9360
4.9578
4.8900
4.9059
4.9452
4.9768
4.8894
4.9255
4.9245
4.9264
4.9589
4.9199
4.8820
4.9161
4.9277
4.8776
4.9594
4.9155
4.9205
4.9409
4.9269
4.9401
4.9082
4.8881
4.8959
4.9201
4.9040
4.9361
4.9248
4.9342
4.8803
4.9568
4.9100
4.9469
4.9424
4.8965
4.9384
4.9370
4.9272
4.9107
4.9337
4.9349
4.9513
4.9616
4.8935
4.9035
4.9090
4.9435
4.9037
4.9363
4.9135
4.9436
4.8917
4.9090
4.8894
4.9494
4.9539
4.8964
4.9242
4.9316
4.9490
4.9063
4.9374
4.9090
4.9062
4.9238
4.9181
4.9210
4.9192
4.9118
4.8844
4.8968
4.9259
4.9184
4.9145
4.9295
4.9394
4.9322
4.9330
4.9176
4.9688
4.9655
4.9437
4.9256
4.9200
4.9193
4.9372
4.9316
4.9597
4.9513
4.9134
4.9363
4.9496
4.8979
4.9062
4.9056
4.9165
4.9313
4.8950
4.9162
4.9324
4.9220
4.9069
4.9454
4.9335
4.9190
4.9221
4.9217
4.9599
4.9790
4.9447
4.9117
4.9049
4.9110
4.9539
4.8990
4.9411
4.9011
4.9628
4.9648
4.9576
4.9278
4.9440
4.9443
4.9497
4.9485
4.9440
4.9398
4.9478
4.9473
4.8940
4.9240
4.9420
4.9440
4.9015
4.9383
4.9638
4.9013
4.8916
4.9331
4.9492
4.9047
4.9437
4.8988
4.8991
4.9518
4.9147
4.9301
4.9345
4.9320
4.9026
4.8841
4.9341
4.9123
4.9246
4.9198
4.9456
4.9021
4.9374
4.8950
4.9476
4.9275
4.9132
4.8986
4.8701
4.9071
4.9313
4.9297
4.9175
4.9163
4.9516
4.9514
4.9176
4.9371
4.9260
4.9403
4.9199
4.9236
4.9150
4.9807
4.8993
4.9045
4.9388
4.9566
4.9507
4.9138
4.9153
4.9521
4.9287
4.9335
4.9595
4.9320
4.9331
4.9062
4.9311
4.9002
4.8915
4.9226
4.9149
4.9254
4.9199
4.9209
4.8970
4.9298
4.9416
4.9409
4.8823
4.9357
4.9217
4.9126
4.9418
4.9384
4.9098
4.9050
4.9006
4.9268
4.9178
4.9585
4.8772
4.9280
4.8830
4.9129
4.9304
4.9547
4.8816
4.9503
4.9125
4.9139
4.9164
4.9142
4.9304
4.8905
4.8787
4.9121
4.9488
4.8818
4.9354
4.9071
4.9148
4.9085
4.9257
4.9248
4.9208
4.9400
4.9431
4.9382
4.9061
4.8947
4.9543
4.9365
4.9433
4.9075
4.9307
4.9098
4.9290
4.9327
4.9357
4.9041
4.9359
4.8866
4.9458
4.9321
4.9417
4.9249
4.9365
4.9298
4.9113
4.9078
4.9017
4.9238
4.9170
4.9277
4.9356
4.9051
4.9177
4.9195
4.9352
4.9023
4.9501
4.9751
4.9481
4.9173
4.9286
4.9284
4.9136
4.9041
4.9303
4.9087
4.8927
4.9409
4.9512
4.9311
4.9628
4.9001
4.9133
4.9446
4.8971
4.9356
4.9178
4.9094
4.9195
4.8915
4.9324
4.8927
4.9344
4.8877
4.9322
4.9143
4.9506
4.8876
4.8958
4.9109
4.8901
4.8956
4.9456
4.9127
4.9134
4.9193
4.9106
4.9349
4.9447
4.9265
4.9463
4.8928
4.9306
4.9160
4.9025
4.9299
4.9585
4.9502
4.9195
4.9674
4.9557
4.9272
4.9299
4.8781
4.9176
4.9030
4.9266
4.9212
4.9058
4.9467
4.9177
4.9218
4.9529
4.9511
4.9237
4.9170
4.9571
4.9496
4.9419
4.9149
4.9252
4.8796
4.8875
4.9088
4.9011
4.9177
4.9338
4.9225
4.9249
4.9095
4.9310
4.9041
4.9792
4.9091
4.9183
4.9123
4.9246
4.9127
4.9135
4.8886
4.9506
4.9443
4.9002
4.9285
4.8881
4.9024
4.9284
4.9481
4.9217
4.9488
4.8995
4.9156
4.8773
4.9250
4.9217
4.9247
4.9160
4.9478
4.9144
4.9094
4.8879
4.9548
4.9179
4.9439
4.9193
4.9056
4.9011
4.8856
4.9382
4.8923
4.9565
4.9558
4.8986
4.9577
4.8926
4.9438
4.9415
4.9464
4.9391
4.9479
4.9161
4.9178
4.8965
4.9000
4.9277
4.9148
4.8944
4.9358
4.9165
4.8927
4.8879
4.8913
4.9435
4.9464
4.9366
4.9432
4.9249
4.9044
4.8985
4.9788
4.8995
4.9550
4.9501
4.9204
4.9432
4.9099
4.9210
4.9163
4.9224
4.9254
4.9162
4.8779
4.9315
4.9359
4.9134
4.9436
4.9443
4.9150
4.8946
4.9342
4.8978
4.9012
4.8817
4.9324
4.9064
4.8870
4.9188
4.9545
4.9042
4.9098
4.9098
4.9111
4.9351
4.8988
4.9395
4.9507
4.8957
4.9015
4.8974
4.9113
4.9184
4.9128
4.9384
4.9352
4.9044
4.8848
4.9265
4.8954
4.9149
4.9391
4.9018
4.9323
4.9203
4.9386
4.9184
4.9029
4.9764
4.9133
4.9096
4.9141
4.9246
4.9406
4.9553
4.8997
4.9492
4.8911
4.9274
4.9680
4.9350
4.9399
4.9293
4.9064
4.9376
4.9074
4.9419
4.9252
4.8949
4.9049
4.9563
4.8966
4.9583
4.9246
4.9142
4.8829
4.9511
4.8813
4.9074
4.9559
4.8728
4.9227
4.9241
4.9256
4.9316
4.9444
4.9218
4.8910
4.9247
4.9646
4.9112
4.9597
4.9177
4.8638
4.9505
4.9158
4.8788
4.9370
4.9169
4.9297
4.9023
4.9236
4.9102
4.9010
4.9301
4.9314
4.9306
4.9183
4.8857
4.9175
4.8970
4.9303
4.8982
4.9583
4.9085
4.8933
4.9315
4.9344
4.9379
4.9216
4.8889
4.9107
4.8875
4.9420
4.8995
4.9200
4.9301
4.8970
4.9418
4.9533
4.9531
4.9347
4.9167
4.9259
4.9350
4.9027
4.9388
4.9504
4.8936
4.8897
4.9171
4.9043
4.9210
4.8755
4.9220
4.9197
4.9495
4.9361
4.9057
4.8890
4.9239
4.8991
4.9400
4.9553
4.9000
4.9507
4.9065
4.9159
4.8991
4.9315
4.9403
4.9194
4.9538
4.9414
4.9219
4.9362
4.9123
4.9866
4.9316
4.8861
4.9160
4.9214
4.9781
4.8985
4.9424
4.9396
4.8868
4.9344
4.8987
4.9228
4.9014
4.9322
4.9287
4.9036
4.8794
4.9250
4.9491
4.9516
4.9345
4.8928
4.9010
4.9574
4.9220
4.8945
4.8904
4.9274
4.9479
4.9507
4.8983
4.8980
4.9475
4.9119
4.9319
4.9111
4.9187
4.9185
4.9653
4.9017
4.9272
4.9087
4.9097
4.9022
4.8955
4.9043
4.9370
4.9252
4.9100
4.9159
4.8698
4.8887
4.9041
4.9278
4.9710
4.9094
4.9416
4.8898
4.8911
4.8894
4.8772
4.9393
4.9408
4.9388
4.9313
4.9093
4.9292
4.9247
4.9002
4.9261
4.9399
4.9123
4.9359
4.9584
4.9287
4.8927
4.8944
4.9377
4.8888
4.9391
4.8757
4.9086
4.9140
4.9083
4.9113
4.8949
4.9012
4.9065
4.8968
4.9295
4.9231
4.8909
4.9370
4.9336
4.9412
4.9183
4.8831
4.9210
4.9063
4.9195
4.9283
4.9163
4.9634
4.8998
4.9274
4.8741
4.9223
4.9033
4.9117
4.8886
4.9158
4.9439
4.9042
4.9069
4.9099
4.8743
4.9329
4.8815
4.9352
4.8826
4.9000
4.9060
4.9193
4.8886
4.9311
4.9235
4.8915
4.9555
4.9143
4.9082
4.8995
4.9126
4.9332
4.9459
4.9263
4.9663
4.9295
4.8954
4.8840
4.9157
4.9158
4.9122
4.8923
4.9336
4.9016
4.8779
4.8927
4.9393
4.9248
4.9185
4.9092
4.9187
4.9360
4.8959
4.9380
4.9448
4.9290
4.8902
4.9095
4.9251
4.9310
4.8925
4.9255
4.9333
4.9414
4.9272
4.9208
4.9188
4.8712
4.9282
4.9056
4.9030
4.9145
4.9249
4.9576
4.9511
4.9112
4.9444
4.9339
4.9090
4.9293
4.8968
4.9459
4.8992
4.9016
4.9321
4.9252
4.9123
4.9093
4.9423
4.9322
4.8727
4.9351
4.8954
4.9203
4.9201
4.9058
4.9255
4.9186
4.9581
4.9108
4.9243
4.9193
4.9091
4.9371
4.9063
4.9326
4.8901
4.9021
4.8745
4.8909
4.9095
4.9223
4.9394
4.9514
4.9383
4.8733
4.9062
4.8876
4.9251
4.9245
4.9012
4.8871
4.9212
4.9007
4.9083
4.9044
4.9151
4.9259
4.8936
4.9247
4.9174
4.9234
4.9204
4.8851
4.9496
4.9047
4.8984
4.9477
4.8975
4.8944
4.8770
4.9295
4.8860
4.8918
4.9040
4.9062
4.8922
4.9120
4.8937
4.8918
4.8966
4.9134
4.9476
4.9239
4.9455
4.9194
4.9229
4.9090
4.9247
4.8975
4.8815
4.9247
4.8744
4.9071
4.8883
4.9138
4.9264
4.8858
4.8973
4.8757
4.8807
4.8757
4.9112
4.9196
4.8994
4.9444
4.8971
4.8916
4.8837
4.9097
4.9040
4.8777
4.8985
4.8975
4.9193
4.9057
4.8833
4.9135
4.9403
4.9177
4.9099
4.9169
4.9421
4.9167
4.9189
4.9229
4.9096
4.9216
4.8855
4.9031
4.9013
4.8974
4.9039
4.8949
4.9211
4.8630
4.8882
4.9037
4.8939
4.9472
4.9244
4.9057
4.9086
4.9352
4.9149
4.9510
4.9588
4.8833
4.9623
4.9291
4.9361
4.8715
4.9386
4.9180
4.8861
4.9309
4.9069
4.9027
4.9108
4.9202
4.9033
4.9597
4.9440
4.9224
4.8999
4.9164
4.9099
4.9323
4.9489
4.9254
4.9307
4.9272
4.9069
4.9139
4.9136
4.8720
4.8716
4.8576
4.8967
4.9643
4.9373
4.9220
4.9125
4.9311
4.9436
4.8830
4.9174
4.9143
4.8873
4.9323
4.9228
4.8737
4.9215
4.9264
4.9083
4.8970
4.8908
4.9151
4.8837
4.9080
4.9265
4.9212
4.9077
4.9036
4.9187
4.9126
4.9643
4.9247
4.9034
4.9153
4.8631
4.9207
4.9110
4.9246
4.9208
4.9310
4.9142
4.9258
4.9065
4.9446
4.8896
4.9172
4.8634
4.8533
4.9188
4.8569
4.9393
4.9249
4.8945
4.9029
4.8908
4.8972
4.9045
4.9033
4.9364
4.9136
4.8650
4.9036
4.9617
4.9127
4.9177
4.9389
4.9352
4.9101
4.9036
4.8941
4.9234
4.9199
4.8636
4.9297
4.8715
4.8954
4.9379
4.9106
4.8752
4.9207
4.9078
4.8823
4.9053
4.8962
4.8972
4.8834
4.8859
4.8944
4.9006
4.8962
4.9139
4.8996
4.9139
4.8942
4.8970
4.9204
4.9472
4.8833
4.9360
4.9617
4.8812
4.8957
4.9303
4.9332
4.8771
4.9018
4.8897
4.8939
4.9132
4.8757
4.9084
4.9096
4.9402
4.8919
4.9033
4.8963
4.9162
4.9355
4.9095
4.9249
4.9049
4.9017
4.9101
4.9051
4.8995
4.9052
4.8857
4.9314
4.9458
4.8938
4.9268
4.8983
4.9319
4.8696
4.9030
4.8956
4.9309
4.8870
4.8796
4.9281
4.9419
4.9119
4.9011
4.9072
4.9041
4.9307
4.9248
4.8807
4.9366
4.8930
4.8752
4.9344
4.8775
4.9191
4.8985
4.8820
4.8985
4.9174
4.8982
4.9250
4.8902
4.9314
4.9022
4.9029
4.8794
4.9081
4.8897
4.9224
4.9523
4.8961
4.9138
4.8957
4.8968
4.8939
4.8920
4.8947
4.9601
4.9427
4.9324
4.8873
4.8940
4.9077
4.9261
4.8932
4.8997
4.8865
4.9270
4.8802
4.9456
4.8892
4.9112
4.9039
4.9213
4.8987
4.9205
4.9198
4.9378
4.8954
4.9051
4.9218
4.8773
4.9156
4.9356
4.9141
4.9081
4.8611
4.9406
4.9302
4.9214
4.9344
4.8761
4.9438
4.9107
4.9118
4.9027
4.8796
4.9132
4.8824
4.9087
4.9029
4.9150
4.9491
4.8912
4.9335
4.8686
4.9313
4.9334
4.9398
4.9094
4.9101
4.9284
4.9037
4.9321
4.9430
4.8882
4.9045
4.9513
4.9113
4.9644
4.9124
4.9510
4.8996
4.9175
4.9264
4.8771
4.9136
4.8997
4.9169
4.8911
4.9212
4.9439
4.9184
4.8747
4.9006
4.9120
4.9660
4.9358
4.9075
4.9127
4.9377
4.9193
4.8894
4.9111
4.9089
4.8778
4.9216
4.9140
4.9237
4.9172
4.9213
4.8958
4.8486
4.8897
4.8971
4.9034
4.9368
4.8922
4.8709
4.8878
4.9290
4.9108
4.8947
4.9075
4.9213
4.9345
4.8971
4.9324
4.9379
4.9152
4.8912
4.9268
4.8709
4.9218
4.8715
4.8883
4.9455
4.9331
4.9202
4.9095
4.9273
4.9136
4.9108
4.9078
4.8939
4.8978
4.9018
4.9023
4.9489
4.9272
4.9138
4.9193
4.9267
4.8999
4.9267
4.8796
4.9229
4.9331
4.8896
4.8781
4.9316
4.8724
4.8660
4.9706
4.8920
4.8983
4.9390
4.8829
4.9242
4.9062
4.9388
4.9282
4.9190
4.8821
4.9045
4.9299
4.9255
4.9514
4.8773
4.9320
4.9250
4.8841
4.8544
4.8858
4.8870
4.9222
4.8925
4.9356
4.9124
4.9283
4.9318
4.9076
4.9169
4.9010
4.8904
4.9071
4.9025
4.9570
4.9005
4.8719
4.9456
4.9122
4.9163
4.9369
4.9068
4.9202
4.9291
4.8680
4.9222
4.8983
4.9219
4.8949
4.9149
4.9147
4.9242
4.9153
4.8922
4.8746
4.8920
4.8929
4.9030
4.9209
4.8923
4.8686
4.8545
4.9188
4.9068
4.8999
4.9084
4.8834
4.8929
4.8740
4.9147
4.8958
4.9514
4.9096
4.9044
4.9525
4.8910
4.9131
4.9257
4.8969
4.9062
4.8839
4.9502
4.9356
4.8993
4.8773
4.9053
4.9274
4.9042
4.9040
4.9018
4.9396
4.8974
4.8832
4.8843
4.8879
4.9321
4.9090
4.8891
4.9112
4.9455
4.9097
4.9020
4.8667
4.9526
4.8916
4.9458
4.9162
4.8661
4.9273
4.8952
4.9443
4.9234
4.9084
4.9038
4.8981
4.9012
4.9410
4.9303
4.9119
4.9307
4.8948
4.8803
4.9140
4.9042
4.9353
4.8958
4.8930
4.9239
4.9005
4.9056
4.8702
4.8685
4.9174
4.8697
4.9111
4.9492
4.8911
4.9237
4.8743
4.9145
4.8903
4.9038
4.9088
4.8768
4.9049
4.9136
4.9258
4.9079
4.8768
4.8985
4.8786
4.9059
4.9212
4.9065
4.8773
4.9009
4.9186
4.9335
4.9224
4.8857
4.9207
4.9485
4.9566
4.8862
4.8804
4.8807
4.9450
4.9085
4.8737
4.9407
4.9069
4.8949
4.9044
4.8719
4.8658
4.8598
4.9127
4.9237
4.9078
4.9178
4.8753
4.8854
4.9310
4.9073
4.9307
4.9174
4.8694
4.8695
4.9279
4.9526
4.9046
4.9327
4.8985
4.9078
4.8824
4.9338
4.9075
4.9250
4.9418
4.9042
4.9333
4.9136
4.9264
4.9382
4.8121
4.9307
4.8936
4.9229
4.8867
4.9215
4.8779
4.9049
4.8943
4.8992
4.9066
4.9036
4.9058
4.8717
4.9113
4.9188
4.9433
4.9207
4.9119
4.8811
4.8926
4.9029
4.8960
4.9029
4.8913
4.8821
4.8989
4.9131
4.8919
4.9113
4.9189
4.9111
4.9054
4.9196
4.8955
4.8905
4.9170
4.9069
4.8664
4.9376
4.8825
4.8965
4.8918
4.9214
4.8525
4.8958
4.8967
4.9359
4.9178
4.9104
4.9106
4.9194
4.8948
4.8945
4.9039
4.9292
4.9202
4.9292
4.9022
4.8998
4.9176
4.9071
4.8815
4.9107
4.9050
4.9026
4.8406
4.9338
4.8815
4.9224
4.9045
4.9104
4.8922
4.9125
4.9123
4.9407
4.9136
4.8903
4.9310
4.8779
4.8919
4.9307
4.8712
4.8785
4.9046
4.8958
4.9182
4.9148
4.9055
4.9091
4.8691
4.9523
4.9065
4.9068
4.9503
4.9133
4.9407
4.8382
4.8946
4.9336
4.9067
4.9113
4.8820
4.8724
4.9086
4.9297
4.9213
4.8778
4.9046
4.9089
4.9062
4.8965
4.9305
4.9236
4.8774
4.9331
4.8853
4.9088
4.9146
4.9416
4.9253
4.9035
4.9057
4.9258
4.8697
4.9349
4.9058
4.9011
4.9272
4.9071
4.9381
4.8823
4.9508
4.8848
4.9120
4.9048
4.9036
4.8987
4.9333
4.9008
4.8818
4.9085
4.9008
4.9263
4.8783
4.8773
4.9062
4.9180
4.9442
4.9088
4.9229
4.9446
4.8915
4.8760
4.9252
4.8975
4.9032
4.9057
4.9000
4.9191
4.8737
4.9122
4.9076
4.8544
4.9160
4.9174
4.9580
4.9072
4.9448
4.8784
4.8837
4.9004
4.8585
4.8768
4.9122
4.9202
4.9271
4.9026
4.9253
4.8913
4.9209
4.9025
4.9080
4.8924
4.9100
4.8949
4.8889
4.8949
4.8773
4.9338
4.8706
4.9233
4.9294
4.9435
4.9334
4.9149
4.8929
4.9122
4.9234
4.9323
4.9233
4.9349
4.9346
4.8647
4.9112
4.9031
4.9172
4.9010
4.8994
4.8778
4.9404
4.8826
4.9024
4.8694
4.9087
4.9285
4.9347
4.9004
4.9127
4.8760
4.8976
4.9212
4.8844
4.9056
4.9318
4.9174
4.8865
4.8716
4.9162
4.8975
4.8724
4.8996
4.8896
4.9088
4.9259
4.9018
4.8780
4.8916
4.8923
4.8773
4.8651
4.8896
4.8970
4.8769
4.8843
4.9150
4.8965
4.8942
4.8815
4.8658
4.8522
4.9054
4.9368
4.9121
4.8939
4.9517
4.9093
4.9373
4.9282
4.8942
4.8936
4.8733
4.9068
4.9325
4.8852
4.9169
4.8797
4.8660
4.8756
4.9264
4.9138
4.9077
4.9008
4.9102
4.8874
4.8854
4.9028
4.8948
4.8855
4.8584
4.8735
4.9209
4.9215
4.9456
4.8997
4.9062
4.9142
4.9252
4.8988
4.9107
4.8987
4.8562
4.8758
4.9292
4.8838
4.8819
4.8435
4.9291
4.9157
4.9048
4.9169
4.9109
4.9530
4.9188
4.9108
4.9118
4.9058
4.9114
4.8895
4.9009
4.8680
4.8815
4.9048
4.8672
4.8725
4.9051
4.9062
4.8934
4.9326
4.8773
4.9098
4.9054
4.9067
4.9248
4.9188
4.9121
4.8996
4.8916
4.8758
4.9089
4.8742
4.8644
4.8838
4.8910
4.9084
4.9368
4.9060
4.9227
4.9239
4.9177
4.8782
4.9004
4.9031
4.9224
4.8983
4.9331
4.8963
4.9111
4.9134
4.8904
4.9107
4.9180
4.9222
4.8891
4.9224
4.9188
4.8900
4.8987
4.9458
4.9202
4.9424
4.9231
4.8803
4.8557
4.9066
4.8772
4.8968
4.9212
4.8945
4.9093
4.8779
4.9042
4.9392
4.8893
4.9272
4.8881
4.8865
4.8813
4.9418
4.8972
4.8672
4.8857
4.9309
4.8687
4.8861
4.9244
4.8603
4.9106
4.8929
4.9078
4.8837
4.9216
4.9220
4.9031
4.9108
4.9029
4.8937
4.8746
4.8796
4.9063
4.9214
4.9192
4.8928
4.8858
4.8980
4.8917
4.8957
4.8920
4.8719
4.9112
4.8569
4.9515
4.8823
4.8981
4.8633
4.9230
4.8821
4.8901
4.9041
4.8542
4.9564
4.8871
4.8634
4.8722
4.9280
4.8952
4.9015
4.8983
4.8917
4.9184
4.8946
4.9502
4.8753
4.8417
4.9148
4.9332
4.9172
4.9441
4.8912
4.9173
4.8817
4.9335
4.9202
4.8707
4.9094
4.8997
4.9105
4.8914
4.8854
4.9047
4.9342
4.8831
4.8876
4.8980
4.8939
4.9144
4.8808
4.9021
4.9161
4.8811
4.9102
4.9514
4.9173
4.9219
4.9121
4.8594
4.8961
4.9235
4.9284
4.8828
4.9163
4.8805
4.9004
4.8978
4.8781
4.9393
4.9258
4.9117
4.9014
4.8907
4.8673
4.8871
4.9029
4.9169
4.9153
4.8736
4.9390
4.9215
4.9019
4.8960
4.8692
4.9013
4.9446
4.9284
4.9028
4.8998
4.8836
4.8952
4.9135
4.9034
4.9078
4.8807
4.9061
4.9131
4.8975
4.9024
4.9251
4.8769
4.8987
4.9043
4.9107
4.9020
4.8924
4.9021
4.8975
4.9222
4.8966
4.8818
4.9117
4.8878
4.9124
4.9057
4.8847
4.8798
4.8985
4.9201
4.9437
4.8757
4.9375
4.8753
4.8320
4.9033
4.9209
4.8725
4.8705
4.8976
4.9200
4.8573
4.8906
4.9258
4.9216
4.9059
4.8859
4.9240
4.9438
4.9034
4.9048
4.8999
4.9008
4.9080
4.9226
4.8961
4.8764
4.9096
4.8880
4.9349
4.8937
4.8989
4.8885
4.9024
4.9499
4.8957
4.9017
4.8752
4.8893
4.9093
4.9159
4.9005
4.8988
4.8928
4.8979
4.8875
4.9254
4.8934
4.8915
4.8718
4.9617
4.8556
4.8737
4.9037
4.9018
4.9296
4.8808
4.8806
4.8741
4.8975
4.9286
4.9156
4.8718
4.9169
4.8804
4.9009
4.8896
4.8673
4.8896
4.9289
4.9216
4.8738
4.8692
4.8859
4.9423
4.9112
4.9176
4.9135
4.8580
4.9125
4.9208
4.8889
4.9108
4.8853
4.9176
4.9262
4.8956
4.8787
4.9362
4.9080
4.9194
4.8830
4.9624
4.8937
4.9395
4.8742
4.9599
4.8980
4.8686
4.9067
4.8640
4.8841
4.9085
4.9057
4.9155
4.8882
4.8694
4.8920
4.8987
4.8783
4.9021
4.8320
4.9088
4.8982
4.8968
4.8885
4.9216
4.8669
4.8615
4.9077
4.9272
4.9296
4.8885
4.8716
4.9041
4.8834
4.9079
4.9247
4.8736
4.8966
4.9272
4.9141
4.8984
4.8961
4.8977
4.9370
4.9197
4.9059
4.9234
4.8942
4.8628
4.9141
4.8661
4.9019
4.9410
4.9212
4.8966
4.9015
4.8873
4.8702
4.8777
4.8951
4.8868
4.8897
4.8990
4.9422
4.8828
4.9068
4.9279
4.8801
4.9080
4.9057
4.8878
4.9142
4.9110
4.9060
4.8684
4.9260
4.8484
4.8986
4.8887
4.8795
4.8691
4.8912
4.8926
4.8915
4.8551
4.9179
4.9013
4.8912
4.8767
4.9032
4.8704
4.8715
4.9012
4.9098
4.8584
4.8466
4.8880
4.8798
4.8989
4.8978
4.9073
4.8526
4.9114
4.8914
4.8857
4.9300
4.9001
4.8851
4.9267
4.9090
4.8991
4.9148
4.8755
4.8972
4.8838
4.8925
4.9166
4.9391
4.8710
4.9233
4.8889
4.8860
4.8817
4.9611
4.8994
4.9133
4.9150
4.8705
4.9399
4.8933
4.8942
4.8615
4.9248
4.8473
4.9508
4.8445
4.9110
4.9036
4.8866
4.9036
4.9108
4.8906
4.9147
4.8958
4.9248
4.9093
4.8853
4.9001
4.9310
4.9481
4.9091
4.9212
4.9305
4.8808
4.9042
4.8777
4.8779
4.8895
4.8994
4.8656
4.9115
4.8989
4.8938
4.8837
4.9007
4.8867
4.8698
4.8809
4.9269
4.9571
4.8800
4.9136
4.9190
4.8916
4.8790
4.9266
4.8822
4.8973
4.9306
4.9322
4.9018
4.9295
4.9064
4.8824
4.9119
4.9060
4.8703
4.9440
4.8860
4.8598
4.9042
4.8967
4.8635
4.8912
4.9201
4.9216
4.8736
4.8645
4.8708
4.8953
4.8630
4.8970
4.8826
4.8935
4.8489
4.8755
4.9454
4.8926
4.8924
4.8601
4.8660
4.8704
4.8778
4.9070
4.9262
4.9166
4.9136
4.8979
4.8738
4.9083
4.8886
4.9060
4.9122
4.9083
4.9143
4.8909
4.8815
4.9086
4.8831
4.8894
4.9010
4.9168
4.8950
4.8987
4.9245
4.9354
4.9176
4.8747
4.9104
4.8910
4.9377
4.8602
4.9067
4.8936
4.9148
4.8996
4.9098
4.9529
4.8858
4.8629
4.8950
4.8974
4.9004
4.8771
4.8794
4.9294
4.9396
4.8820
4.9085
4.8959
4.8813
4.8753
4.8970
4.8938
4.8855
4.8573
4.9030
4.9504
4.8665
4.9139
4.9264
4.8731
4.8892
4.8611
4.9416
4.8965
4.8822
4.8944
4.8910
4.8694
4.8997
4.9022
4.9251
4.9132
4.8993
4.8796
4.9329
4.8822
4.8952
4.8669
4.9002
4.9027
4.9031
4.8748
4.8215
4.9046
4.9006
4.9336
4.8750
4.9138
4.8832
4.8604
4.8942
4.8880
4.9328
4.9050
4.9009
4.8868
4.9128
4.8974
4.8993
4.9181
4.8884
4.8962
4.8995
4.9111
4.9119
4.8942
4.9044
4.8601
4.9035
4.9080
4.9279
4.9211
4.8454
4.8330
4.8912
4.9053
4.9010
4.8346
4.8827
4.9153
4.8624
4.8398
4.8815
4.8926
4.8966
4.8852
4.9098
4.9335
4.9173
4.9095
4.8631
4.8958
4.8859
4.8934
4.8773
4.8962
4.9101
4.8711
4.8744
4.8696
4.9077
4.8718
4.8874
4.9125
4.9162
4.8698
4.8905
4.8962
4.8749
4.8651
4.8659
4.9209
4.8806
4.8397
4.9005
4.9163
4.8781
4.9412
4.8790
4.8976
4.9255
4.8747
4.8960
4.9079
4.8710
4.8772
4.8949
4.8631
4.8910
4.9255
4.9226
4.8728
4.9051
4.8959
4.8841
4.8954
4.8976
4.8678
4.8565
4.9204
4.8871
4.9012
4.8946
4.8699
4.9064
4.9127
4.8989
4.8966
4.8489
4.9070
4.9337
4.9113
4.8655
4.8845
4.8624
4.8791
4.8925
4.8945
4.9236
4.9539
4.9457
4.8811
4.8687
4.9004
4.8967
4.8679
4.9007
4.9184
4.8826
4.9222
4.9247
4.9034
4.9103
4.8988
4.9269
4.9228
4.8700
4.9190
4.8993
4.9013
4.8741
4.8732
4.8965
4.8961
4.9012
4.8840
4.8947
4.9146
4.8812
4.8995
4.9040
4.8706
4.9158
4.8991
4.8541
4.8919
4.9068
4.8691
4.9174
4.8917
4.9123
4.8789
4.8929
4.8743
4.8726
4.8946
4.8778
4.9256
4.9210
4.8723
4.9043
4.8965
4.9197
4.8758
4.9006
4.8906
4.8970
4.8888
4.8917
4.8793
4.9165
4.8718
4.8728
4.8619
4.8655
4.8878
4.8983
4.9014
4.8850
4.9020
4.8668
4.9128
4.9264
4.9177
4.8846
4.8748
4.9032
4.8931
4.8953
4.8295
4.8436
4.9215
4.8838
4.8594
4.9451
4.8960
4.8780
4.9257
4.8650
4.8910
4.8809
4.9025
4.8995
4.8905
4.8987
4.8837
4.8739
4.8931
4.8859
4.8967
4.8771
4.8970
4.8866
4.9040
4.9335
4.9048
4.8640
4.8759
4.8670
4.9343
4.9073
4.8727
4.9195
4.9153
4.8835
4.9056
4.8808
4.8821
4.9185
4.9008
4.8965
4.9117
4.8919
4.8913
4.9047
4.8819
4.8975
4.8663
4.9075
4.9177
4.9058
4.8819
4.8995
4.8873
4.9098
4.8904
4.8906
4.9070
4.8897
4.9065
4.9030
4.9291
4.9298
4.9030
4.8811
4.8971
4.9007
4.8645
4.9143
4.8799
4.8937
4.8643
4.9162
4.8680
4.8938
4.9058
4.8974
4.8610
4.9157
4.8969
4.8495
4.8798
4.8951
4.8723
4.8801
4.8781
4.9087
4.8958
4.8906
4.9138
4.9118
4.9149
4.8952
4.8878
4.8782
4.9180
4.8794
4.9105
4.9171
4.8964
4.8616
4.8818
4.8866
4.8833
4.8841
4.8785
4.8612
4.8624
4.8573
4.8985
4.8883
4.8629
4.8962
4.9093
4.8979
4.9095
4.8735
4.8905
4.8873
4.9007
4.8846
4.9048
4.8844
4.8863
4.8692
4.9316
4.9243
4.8879
4.8932
4.8887
4.9173
4.8950
4.9002
4.8534
4.8783
4.9068
4.8691
4.8647
4.8861
4.8977
4.9181
4.8745
4.8678
4.9038
4.8944
4.8795
4.9155
4.9139
4.9341
4.9017
4.9263
4.9154
4.8927
4.8690
4.8910
4.8821
4.8708
4.8743
4.9056
4.8739
4.9012
4.9067
4.9363
4.8843
4.9162
4.8616
4.8820
4.9080
4.9283
4.9356
4.8831
4.8993
4.9108
4.9104
4.9042
4.8762
4.8899
4.9053
4.8888
4.8597
4.9224
4.8811
4.8886
4.8957
4.8845
4.8927
4.9008
4.8379
4.8959
4.9035
4.8922
4.8974
4.8789
4.8731
4.8939
4.8616
4.8936
4.8871
4.8424
4.9294
4.9287
4.8735
4.9147
4.8891
4.8819
4.8808
4.9056
4.8964
4.9274
4.8549
4.8823
4.8627
4.8998
4.8866
4.8921
4.8664
4.8808
4.9026
4.8787
4.9316
4.8975
4.8678
4.8805
4.8368
4.8651
4.8682
4.8787
4.9124
4.8778
4.9297
4.8980
4.9210
4.8477
4.9085
4.8663
4.8642
4.8491
4.9207
4.8972
4.8795
4.8649
4.8980
4.8659
4.8957
4.8516
4.9394
4.9100
4.8730
4.8692
4.9044
4.8708
4.9364
4.8766
4.8841
4.9194
4.8832
4.8693
4.9066
4.9044
4.9161
4.9127
4.8731
4.8476
4.8813
4.8747
4.8942
4.9115
4.8735
4.8909
4.9017
4.8910
4.8794
4.9111
4.8653
4.8756
4.9036
4.9231
4.8972
4.8950
4.9008
4.8726
4.8854
4.8733
4.8869
4.8560
4.9014
4.8840
4.8876
4.9134
4.9176
4.8904
4.9064
4.8557
4.8811
4.9443
4.8761
4.8905
4.8870
4.8632
4.8486
4.9255
4.9022
4.8492
4.8620
4.8658
4.8949
4.8730
4.8736
4.8853
4.8515
4.8560
4.9095
4.9414
4.8858
4.9148
4.8930
4.8687
4.8762
4.9172
4.9002
4.9427
4.8853
4.8767
4.9258
4.9117
4.8992
4.9133
4.8636
4.8795
4.9087
4.9070
4.9131
4.8962
4.8952
4.8542
4.9095
4.8822
4.8954
4.8572
4.9075
4.8868
4.8918
4.8364
4.8974
4.9143
4.8890
4.8860
4.9095
4.8718
4.8867
4.8595
4.8999
4.9112
4.8781
4.8961
4.9132
4.8732
4.8604
4.8807
4.8927
4.8982
4.9013
4.8689
4.9285
4.8766
4.8892
4.9217
4.9063
4.8870
4.8877
4.8900
4.8777
4.8614
4.9021
4.9015
4.8888
4.8359
4.9070
4.9219
4.8977
4.9223
4.8573
4.8740
4.9037
4.8575
4.9061
4.8737
4.8919
4.9022
4.8966
4.8938
4.8790
4.9086
4.8449
4.8867
4.9218
4.8533
4.9200
4.8612
4.8759
4.8907
4.8872
4.8632
4.8941
4.9026
4.8738
4.8729
4.8999
4.8871
4.9069
4.8877
4.8836
4.8917
4.9033
4.9121
4.9023
4.9098
4.8591
4.8841
4.8953
4.8646
4.8566
4.9164
4.9050
4.9654
4.9020
4.8747
4.8745
4.8777
4.8735
4.8685
4.8939
4.8903
4.9083
4.9051
4.9087
4.9017
4.8981
4.8837
4.8973
4.8735
4.9080
4.8840
4.8727
4.8535
4.9022
4.8766
4.8875
4.8763
4.8781
4.8998
4.8433
4.9105
4.8809
4.8880
4.9232
4.8737
4.9094
4.8803
4.8857
4.8719
4.8862
4.9168
4.8983
4.9333
4.8734
4.8659
4.8604
4.8726
4.8695
4.8659
4.9101
4.9236
4.8703
4.8540
4.8912
4.9108
4.8554
4.8754
4.8695
4.9150
4.8424
4.8998
4.8740
4.8833
4.9055
4.8813
4.9449
4.9065
4.9123
4.9039
4.9207
4.9000
4.8942
4.8831
4.8743
4.8824
4.9149
4.8604
4.8897
4.8734
4.8861
4.8833
4.9010
4.8890
4.8911
4.8738
4.9302
4.9596
4.8576
4.8758
4.8686
4.8888
4.8775
4.8877
4.8656
4.9346
4.9083
4.9007
4.8922
4.8780
4.9401
4.9120
4.8865
4.9119
4.9263
4.8973
4.8594
4.8826
4.8477
4.8879
4.8551
4.8881
4.8639
4.9244
4.8858
4.8895
4.8721
4.8862
4.8891
4.9146
4.8941
4.8553
4.8987
4.8973
4.9029
4.8699
4.8571
4.8611
4.9009
4.8715
4.8963
4.9059
4.8998
4.8497
4.9002
4.8623
4.9058
4.9016
4.8876
4.8993
4.8898
4.8671
4.8640
4.8970
4.8861
4.8937
4.9344
4.8745
4.8458
4.8905
4.8956
4.8583
4.8956
4.8809
4.8992
4.8881
4.8831
4.9008
4.8761
4.8647
4.8497
4.8805
4.9102
4.8785
4.8945
4.8482
4.8777
4.9134
4.9446
4.8798
4.8691
4.9020
4.8996
4.8704
4.8878
4.8844
4.8487
4.8664
4.8901
4.8855
4.8781
4.8897
4.8684
4.8943
4.8842
4.8474
4.8469
4.8888
4.8558
4.8685
4.8600
4.8684
4.8824
4.9119
4.8704
4.8793
4.9129
4.8863
4.8895
4.8936
4.8974
4.9127
4.8338
4.8717
4.8978
4.8804
4.8917
4.9148
4.8674
4.9011
4.8461
4.8976
4.9242
4.8661
4.8818
4.8772
4.8987
4.8723
4.8861
4.8853
4.8590
4.9156
4.8909
4.9304
4.9218
4.9002
4.8794
4.9196
4.8818
4.9135
4.8429
4.8903
4.8655
4.8851
4.9088
4.9220
4.8914
4.9337
4.8748
4.8889
4.8907
4.8888
4.8607
4.9202
4.8844
4.8767
4.8398
4.8941
4.8971
4.9140
4.9238
4.8910
4.8839
4.8341
4.8877
4.8579
4.8383
4.8884
4.8846
4.8713
4.8774
4.8985
4.9260
4.8908
4.8731
4.8790
4.8872
4.9070
4.8682
4.8866
4.8750
4.8712
4.8812
4.9108
4.8744
4.8839
4.8717
4.9309
4.8837
4.8953
4.8994
4.8682
4.8746
4.8371
4.8584
4.8705
4.8545
4.8722
4.8957
4.8903
4.8523
4.9301
4.8899
4.8894
4.9132
4.9231
4.8859
4.8686
4.8836
4.9111
4.8686
4.8910
4.9020
4.8944
4.9064
4.8661
4.8709
4.8988
4.8552
4.8634
4.9177
4.8680
4.8801
4.8796
4.8913
4.8745
4.8503
4.8828
4.8924
4.8800
4.8912
4.8834
4.8989
4.9184
4.8816
4.9147
4.8603
4.8882
4.8881
4.8713
4.8502
4.8236
4.9332
4.8608
4.8994
4.8862
4.8748
4.9023
4.8922
4.8807
4.8419
4.8767
4.8750
4.8930
4.8851
4.8880
4.8737
4.8687
4.8780
4.8653
4.8697
4.8842
4.8527
4.8790
4.8892
4.8655
4.8553
4.8669
4.8754
4.9388
4.8972
4.8688
4.8699
4.8358
4.8986
4.8886
4.8677
4.8843
4.8668
4.8577
4.8581
4.9151
4.8765
4.8433
4.8881
4.8994
4.9022
4.8838
4.8573
4.8814
4.8931
4.8610
4.8653
4.9022
4.8594
4.8739
4.8591
4.8714
4.8823
4.8834
4.8756
4.8467
4.8841
4.8957
4.8702
4.9172
4.8717
4.8863
4.8876
4.8774
4.8795
4.8565
4.8840
4.8828
4.8688
4.8935
4.9138
4.9107
4.8670
4.9159
4.8509
4.8533
4.8710
4.8726
4.8783
4.8647
4.8771
4.8813
4.8944
4.8559
4.8922
4.8640
4.8896
4.8806
4.8935
4.9113
4.8704
4.8587
4.9029
4.8834
4.9055
4.8661
4.8799
4.8724
4.8703
4.9050
4.8805
4.8936
4.8859
4.8640
4.8686
4.8756
4.8657
4.8454
4.9082
4.9153
4.9163
4.8582
4.8607
4.8591
4.8824
4.8853
4.8854
4.8604
4.8756
4.9077
4.9033
4.8308
4.8634
4.8915
4.8681
4.8638
4.9127
4.8780
4.9084
4.9237
4.8563
4.8893
4.8617
4.9046
4.8706
4.8813
4.8564
4.8691
4.8657
4.8811
4.8666
4.8975
4.8341
4.8603
4.8623
4.9420
4.8720
4.8792
4.8958
4.8951
4.8956
4.8615
4.8787
4.9158
4.8549
4.8866
4.8734
4.8834
4.8807
4.8430
4.8797
4.8631
4.8666
4.9084
4.8877
4.9230
4.8380
4.8987
4.8838
4.9291
4.8816
4.8921
4.9149
4.8502
4.8871
4.8499
4.9193
4.8596
4.8760
4.8676
4.8972
4.8796
4.9022
4.8812
4.8389
4.9190
4.8579
4.8590
4.8294
4.8884
4.8763
4.8853
4.8612
4.8567
4.9109
4.8864
4.9102
4.8838
4.8732
4.8902
4.9048
4.8922
4.9258
4.9051
4.8515
4.8698
4.9108
4.8607
4.8685
4.8861
4.9223
4.8696
4.8866
4.9124
4.8727
4.8556
4.9153
4.8881
4.8917
4.8478
4.8677
4.8842
4.8489
4.8908
4.8731
4.8763
4.8583
4.8841
4.8695
4.8758
4.9128
4.9032
4.9123
4.8646
4.8929
4.8575
4.8634
4.8508
4.9185
4.8902
4.8542
4.9028
4.8915
4.8886
4.8932
4.8700
4.8695
4.8785
4.8888
4.9190
4.9023
4.8916
4.9220
4.8463
4.8880
4.9411
4.9259
4.8753
4.8881
4.8757
4.8755
4.8645
4.8705
4.8736
4.8547
4.8312
4.8964
4.9123
4.9112
4.8732
4.8942
4.8472
4.8609
4.8606
4.8627
4.8660
4.8685
4.9026
4.9260
4.8926
4.8696
4.8675
4.8621
4.8492
4.8873
4.9241
4.8506
4.8877
4.8528
4.8222
4.9042
4.9039
4.8901
4.9106
4.8799
4.8880
4.8535
4.8870
4.8572
4.8772
4.8864
4.8848
4.8788
4.8499
4.8976
4.8491
4.9068
4.8838
4.8712
4.8869
4.8811
4.9017
4.8692
4.8973
4.8345
4.8860
4.8904
4.9144
4.9184
4.8312
4.8383
4.8342
4.8640
4.8911
4.8944
4.8729
4.8673
4.9049
4.8664
4.8484
4.8595
4.8684
4.8562
4.9251
4.8683
4.8816
4.8874
4.8848
4.8944
4.8713
4.8468
4.8812
4.8337
4.8780
4.8567
4.9064
4.9191
4.8645
4.8978
4.9065
4.8846
4.9035
4.8575
4.9119
4.8889
4.8823
4.8645
4.8317
4.8844
4.8854
4.8902
4.8888
4.8963
4.8681
4.8970
4.8782
4.9149
4.8729
4.8872
4.8483
4.8420
4.9101
4.8686
4.8681
4.8585
4.8300
4.9107
4.9071
4.8725
4.9096
4.8842
4.8963
4.8805
4.8574
4.8932
4.8918
4.9127
4.8909
4.8680
4.8946
4.8744
4.9042
4.8785
4.9095
4.8791
4.8687
4.8445
4.8877
4.8239
4.9134
4.9024
4.8467
4.8842
4.8997
4.8905
4.9033
4.8695
4.8925
4.8986
4.8999
4.9231
4.8514
4.8650
4.8663
4.8602
4.8805
4.8623
4.9090
4.8611
4.8578
4.8769
4.8972
4.8832
4.8739
4.8875
4.8816
4.8697
4.8635
4.8796
4.9040
4.8801
4.9041
4.9038
4.8997
4.8637
4.8901
4.8878
4.8670
4.8752
4.9024
4.8868
4.9274
4.8788
4.8990
4.8927
4.8999
4.8683
4.8864
4.8764
4.8547
4.8933
4.9134
4.8847
4.8956
4.8670
4.8721
4.8529
4.8917
4.8415
4.8696
4.8871
4.8953
4.8657
4.8771
4.8693
4.9187
4.8288
4.8889
4.8809
4.8789
4.8461
4.8514
4.8842
4.8843
4.8411
4.8894
4.8957
4.8215
4.9043
4.8436
4.8450
4.8624
4.8163
4.8792
4.8413
4.9009
4.8740
4.8676
4.8706
4.8411
4.8431
4.8874
4.8908
4.9238
4.8222
4.8796
4.9045
4.8446
4.8995
4.8753
4.8761
4.8660
4.8742
4.9173
4.8810
4.8669
4.9437
4.8401
4.8724
4.8873
4.8793
4.8544
4.8790
4.8967
